!@!!GADDS PLOTSO FILE: Chi integration type
!@!!Title/SampleName: ML_MAPbX3
!@!!User: NREL
!@!!Site: NREL SERF C211; SN 2510
!@!!Frame: 081022_MLProject_000_015.gfrm
!@!!Wavelengths    1.54184   1.54056   1.54439
!@!!Frame angles: 2Theta: 28.000 Omega: 5.000 Phi: 0.000 Chi: 90.000
!@!!Integration range: 2Theta: 10.000 to 40.000  Gamma: -135.000 to -110.000
!@!!Integration method: bin normalized
!@!N
!@!SS
!@!M
!@!L 0.0 0.0 0.0 0.0
!@!XDegrees
!@!YCounts
10.00 142.399445
10.02 137.500443
10.04 142.845367
10.06 138.548477
10.08 148.43071
10.10 152.220306
10.12 139.046036
10.14 140.018433
10.16 137.866531
10.18 142.188507
10.20 143.950104
10.22 145.173264
10.24 144.059845
10.26 126.155174
10.28 131.746536
10.30 126.661499
10.32 149.088989
10.34 155.29512
10.36 155.738708
10.38 166.959595
10.40 153.485168
10.42 154.964523
10.44 143.466766
10.46 163.143784
10.48 162.54245
10.50 157.711761
10.52 150.565506
10.54 137.775146
10.56 147.034851
10.58 157.68541
10.60 148.680664
10.62 154.116867
10.64 173.947021
10.66 156.957367
10.68 156.892075
10.70 149.77182
10.72 162.78714
10.74 158.336487
10.76 162.79184
10.78 179.950546
10.80 172.591492
10.82 174.585464
10.84 180.279663
10.86 178.09201
10.88 173.930786
10.90 174.271729
10.92 159.258942
10.94 187.428009
10.96 164.157745
10.98 170.33461
11.00 163.110046
11.02 168.259445
11.04 169.282379
11.06 162.722275
11.08 178.764694
11.10 183.065292
11.12 179.802292
11.14 176.023773
11.16 175.903625
11.18 186.566711
11.20 175.096466
11.22 179.48381
11.24 178.34375
11.26 173.180939
11.28 182.129852
11.30 176.771088
11.32 177.996475
11.34 183.903854
11.36 186.883392
11.38 199.65947
11.40 199.99791
11.42 216.567657
11.44 195.191071
11.46 184.205963
11.48 184.523041
11.50 176.807266
11.52 187.956573
11.54 188.116989
11.56 205.939377
11.58 199.984329
11.60 211.271713
11.62 193.995987
11.64 187.613464
11.66 195.728745
11.68 213.250992
11.70 200.723114
11.72 195.380844
11.74 198.87085
11.76 197.191101
11.78 193.696304
11.80 212.908295
11.82 201.254257
11.84 183.848114
11.86 186.564667
11.88 197.495209
11.90 217.608063
11.92 231.854919
11.94 202.418259
11.96 194.823318
11.98 198.545547
12.00 205.018417
12.02 201.535278
12.04 201.256561
12.06 209.001175
12.08 210.968552
12.10 214.27681
12.12 217.389481
12.14 221.584412
12.16 230.934418
12.18 225.134293
12.20 222.266312
12.22 214.460663
12.24 220.027359
12.26 225.127106
12.28 235.779709
12.30 219.604233
12.32 198.733093
12.34 223.048279
12.36 231.936111
12.38 229.817184
12.40 232.263748
12.42 213.849945
12.44 232.245438
12.46 242.873642
12.48 234.424179
12.50 229.007721
12.52 238.396774
12.54 233.405426
12.56 215.24437
12.58 207.905228
12.60 232.510773
12.62 242.720322
12.64 234.52478
12.66 241.868454
12.68 237.143326
12.70 234.208664
12.72 241.22522
12.74 237.711929
12.76 241.019714
12.78 228.362946
12.80 231.926147
12.82 223.349411
12.84 232.852722
12.86 233.206146
12.88 234.494614
12.90 228.513657
12.92 233.150757
12.94 225.282089
12.96 243.175049
12.98 246.07338
13.00 234.435318
13.02 244.070633
13.04 245.722504
13.06 230.263611
13.08 228.191422
13.10 224.553925
13.12 242.857666
13.14 253.414032
13.16 241.816681
13.18 237.731079
13.20 233.987457
13.22 231.022324
13.24 225.948029
13.26 230.692947
13.28 227.167175
13.30 231.246277
13.32 238.092682
13.34 240.379807
13.36 243.548126
13.38 246.850067
13.40 251.30423
13.42 256.345551
13.44 248.227753
13.46 240.343079
13.48 244.721252
13.50 250.309845
13.52 256.262543
13.54 257.172424
13.56 251.956833
13.58 252.269699
13.60 254.232269
13.62 260.835205
13.64 248.32103
13.66 260.187012
13.68 254.808975
13.70 263.000671
13.72 280.971222
13.74 286.833099
13.76 284.394928
13.78 277.169556
13.80 279.95224
13.82 285.340332
13.84 301.550812
13.86 291.896423
13.88 279.1745
13.90 284.917694
13.92 285.303925
13.94 283.518372
13.96 291.198944
13.98 286.468018
14.00 279.283478
14.02 292.732758
14.04 293.967407
14.06 303.204224
14.08 292.419342
14.10 295.632111
14.12 296.249603
14.14 289.471741
14.16 295.038513
14.18 298.389069
14.20 288.102875
14.22 279.798279
14.24 290.448975
14.26 294.25824
14.28 288.358215
14.30 293.710205
14.32 306.469849
14.34 305.876801
14.36 298.665497
14.38 306.552094
14.40 279.259796
14.42 276.050568
14.44 294.881348
14.46 274.532166
14.48 283.943542
14.50 280.552521
14.52 281.327362
14.54 279.634277
14.56 281.377472
14.58 274.647369
14.60 267.733215
14.62 272.432434
14.64 288.772064
14.66 270.045776
14.68 266.983856
14.70 279.582367
14.72 282.024292
14.74 287.437469
14.76 292.647858
14.78 288.213104
14.80 262.536377
14.82 256.944733
14.84 265.176727
14.86 266.931366
14.88 279.418182
14.90 288.676849
14.92 296.488678
14.94 278.659241
14.96 288.714661
14.98 283.419708
15.00 273.444611
15.02 276.859253
15.04 283.939545
15.06 290.868408
15.08 286.216705
15.10 291.15155
15.12 285.010132
15.14 289.796753
15.16 294.484802
15.18 295.422058
15.20 300.947205
15.22 295.905823
15.24 298.393494
15.26 285.811523
15.28 280.688995
15.30 284.657166
15.32 290.160187
15.34 282.200104
15.36 293.398163
15.38 301.511932
15.40 298.164734
15.42 286.045898
15.44 292.09198
15.46 278.411774
15.48 273.584076
15.50 282.291016
15.52 284.348602
15.54 296.345428
15.56 301.672455
15.58 297.223114
15.60 281.57077
15.62 282.701996
15.64 281.90094
15.66 276.042816
15.68 284.178711
15.70 292.131836
15.72 287.999481
15.74 283.898193
15.76 292.825806
15.78 289.97998
15.80 292.125275
15.82 300.320587
15.84 306.929718
15.86 305.910706
15.88 291.318756
15.90 295.074829
15.92 301.952118
15.94 291.360443
15.96 300.152618
15.98 298.672333
16.00 294.803558
16.02 283.311279
16.04 293.331818
16.06 290.192047
16.08 278.763367
16.10 279.390045
16.12 301.123108
16.14 299.731842
16.16 294.422791
16.18 299.161591
16.20 311.488007
16.22 324.743378
16.24 319.643127
16.26 307.22467
16.28 288.082336
16.30 298.895294
16.32 304.128021
16.34 294.470093
16.36 279.852814
16.38 289.236938
16.40 289.856415
16.42 303.923553
16.44 314.197906
16.46 319.387909
16.48 315.012207
16.50 320.262329
16.52 327.480347
16.54 322.335907
16.56 322.807465
16.58 308.937378
16.60 314.85022
16.62 324.299866
16.64 321.341675
16.66 294.13797
16.68 312.733307
16.70 326.775909
16.72 316.658112
16.74 306.703308
16.76 309.757782
16.78 309.779999
16.80 309.138306
16.82 304.401917
16.84 308.649139
16.86 316.789093
16.88 311.266479
16.90 319.453674
16.92 316.256592
16.94 303.611969
16.96 303.588959
16.98 323.717896
17.00 327.576111
17.02 317.537659
17.04 316.414398
17.06 336.038055
17.08 324.800964
17.10 308.3909
17.12 317.157135
17.14 322.828888
17.16 322.060577
17.18 317.444946
17.20 313.298645
17.22 327.672028
17.24 335.607666
17.26 330.069275
17.28 321.859283
17.30 312.782288
17.32 322.279755
17.34 320.529663
17.36 331.41626
17.38 346.866516
17.40 341.367676
17.42 331.599762
17.44 334.883392
17.46 320.694916
17.48 326.137177
17.50 335.679565
17.52 331.625671
17.54 334.939514
17.56 336.60675
17.58 339.44635
17.60 345.856049
17.62 348.883698
17.64 353.744049
17.66 341.845795
17.68 337.956635
17.70 344.836273
17.72 359.055298
17.74 348.759918
17.76 356.00415
17.78 350.309082
17.80 349.264862
17.82 357.270172
17.84 359.488617
17.86 358.092255
17.88 340.084015
17.90 350.293823
17.92 360.992554
17.94 355.175751
17.96 367.514282
17.98 376.316772
18.00 365.331787
18.02 347.97229
18.04 342.231781
18.06 346.150452
18.08 347.571716
18.10 367.290741
18.12 361.871124
18.14 352.670074
18.16 344.564545
18.18 348.196808
18.20 347.915558
18.22 343.630768
18.24 349.257568
18.26 358.57547
18.28 370.106934
18.30 372.778503
18.32 374.492188
18.34 369.007629
18.36 369.882874
18.38 370.832245
18.40 361.913239
18.42 375.463867
18.44 366.270508
18.46 375.487518
18.48 372.513977
18.50 373.790222
18.52 374.372528
18.54 365.893921
18.56 366.55011
18.58 363.817993
18.60 380.105591
18.62 389.163849
18.64 392.667847
18.66 383.176483
18.68 371.584625
18.70 375.221191
18.72 379.654663
18.74 382.257233
18.76 384.880127
18.78 396.395294
18.80 393.490723
18.82 377.059479
18.84 385.417511
18.86 387.587219
18.88 369.908051
18.90 380.440552
18.92 378.545593
18.94 376.893127
18.96 384.502411
18.98 388.838379
19.00 391.349304
19.02 387.549927
19.04 372.862915
19.06 382.002838
19.08 386.78241
19.10 383.354248
19.12 372.928009
19.14 394.453125
19.16 393.826508
19.18 386.852448
19.20 377.108765
19.22 393.658691
19.24 406.96701
19.26 411.451477
19.28 407.561584
19.30 381.573517
19.32 379.944733
19.34 396.510345
19.36 407.079681
19.38 398.33316
19.40 416.654572
19.42 403.11087
19.44 417.246887
19.46 427.367706
19.48 405.503784
19.50 390.341583
19.52 406.379028
19.54 431.634857
19.56 416.082092
19.58 423.41925
19.60 420.733917
19.62 406.029114
19.64 411.892426
19.66 427.296936
19.68 421.091034
19.70 414.015961
19.72 415.44986
19.74 432.440369
19.76 433.090668
19.78 427.495392
19.80 430.543396
19.82 428.654266
19.84 434.062866
19.86 439.860077
19.88 435.405792
19.90 433.377716
19.92 445.954071
19.94 447.182068
19.96 457.098389
19.98 468.650024
20.00 450.483002
20.02 440.825928
20.04 438.439209
20.06 436.431763
20.08 432.874146
20.10 436.89566
20.12 456.4086
20.14 452.421692
20.16 445.04129
20.18 456.212433
20.20 464.612213
20.22 466.679535
20.24 458.023071
20.26 432.152832
20.28 432.672424
20.30 455.052826
20.32 449.51767
20.34 454.527496
20.36 437.280609
20.38 447.469879
20.40 468.535553
20.42 444.76297
20.44 424.745697
20.46 443.035156
20.48 450.945984
20.50 468.237549
20.52 471.305786
20.54 462.15094
20.56 454.795929
20.58 464.746613
20.60 461.018341
20.62 452.750671
20.64 449.556427
20.66 445.843689
20.68 450.294373
20.70 465.515594
20.72 466.613892
20.74 468.571838
20.76 474.548401
20.78 481.783539
20.80 491.776276
20.82 495.01004
20.84 479.10556
20.86 466.853973
20.88 452.154877
20.90 459.046478
20.92 461.27951
20.94 477.014252
20.96 491.129272
20.98 482.954956
21.00 481.102814
21.02 457.954865
21.04 463.046844
21.06 491.261108
21.08 483.418976
21.10 499.228943
21.12 498.421661
21.14 490.97287
21.16 509.415527
21.18 494.857117
21.20 491.692566
21.22 481.788452
21.24 483.100037
21.26 481.410431
21.28 485.770172
21.30 507.830872
21.32 494.384216
21.34 491.429443
21.36 472.592926
21.38 484.368652
21.40 515.769409
21.42 504.915863
21.44 497.944794
21.46 484.734344
21.48 493.759277
21.50 526.060425
21.52 521.762695
21.54 505.03241
21.56 512.180969
21.58 513.319397
21.60 522.997192
21.62 512.222107
21.64 519.971863
21.66 498.528748
21.68 505.003693
21.70 525.106934
21.72 529.476868
21.74 539.137939
21.76 528.648926
21.78 525.303101
21.80 527.679504
21.82 508.624084
21.84 516.379456
21.86 523.639099
21.88 519.475586
21.90 526.367126
21.92 507.914429
21.94 515.842163
21.96 510.601837
21.98 520.493774
22.00 515.345886
22.02 511.007965
22.04 525.366882
22.06 535.045776
22.08 528.787598
22.10 516.5177
22.12 508.16983
22.14 516.474182
22.16 519.570068
22.18 533.596252
22.20 530.267273
22.22 526.056091
22.24 530.539734
22.26 516.432068
22.28 518.150452
22.30 509.670563
22.32 513.656311
22.34 529.132935
22.36 532.360596
22.38 543.84436
22.40 550.365234
22.42 533.954712
22.44 522.440002
22.46 524.630981
22.48 535.454163
22.50 547.195129
22.52 539.749329
22.54 537.325684
22.56 543.076233
22.58 547.116516
22.60 532.530029
22.62 537.612183
22.64 555.32843
22.66 556.271179
22.68 535.155579
22.70 525.78302
22.72 546.052307
22.74 542.784607
22.76 541.846558
22.78 551.436584
22.80 545.568848
22.82 550.27948
22.84 552.433289
22.86 561.429138
22.88 557.426575
22.90 556.018005
22.92 546.855286
22.94 536.576172
22.96 556.135986
22.98 555.218994
23.00 548.978516
23.02 554.798706
23.04 544.500427
23.06 546.388733
23.08 548.13678
23.10 552.916931
23.12 525.346313
23.14 535.526062
23.16 540.112122
23.18 545.644897
23.20 562.745789
23.22 557.240601
23.24 550.849976
23.26 564.750793
23.28 561.050842
23.30 534.630981
23.32 537.884888
23.34 554.242981
23.36 555.979004
23.38 553.532471
23.40 550.998169
23.42 547.040771
23.44 551.676392
23.46 558.325012
23.48 543.620544
23.50 552.09198
23.52 562.210144
23.54 553.942505
23.56 545.242249
23.58 546.71991
23.60 548.523621
23.62 531.811096
23.64 547.110962
23.66 551.874207
23.68 551.141479
23.70 556.921265
23.72 551.938232
23.74 563.190613
23.76 565.082642
23.78 573.485168
23.80 575.496155
23.82 573.32074
23.84 561.606567
23.86 550.625244
23.88 566.635193
23.90 581.220642
23.92 561.221924
23.94 557.594666
23.96 563.037415
23.98 558.6203
24.00 559.182434
24.02 575.373657
24.04 584.967651
24.06 576.965881
24.08 567.987488
24.10 557.687073
24.12 555.759705
24.14 562.590637
24.16 559.669617
24.18 572.84906
24.20 567.435242
24.22 561.953003
24.24 574.216064
24.26 570.869934
24.28 569.744568
24.30 565.764648
24.32 570.889465
24.34 572.479553
24.36 569.752625
24.38 568.62561
24.40 578.083679
24.42 581.703369
24.44 568.426697
24.46 585.952454
24.48 604.983093
24.50 582.285706
24.52 564.575867
24.54 574.161377
24.56 582.131958
24.58 574.78833
24.60 584.404785
24.62 581.980835
24.64 576.400085
24.66 568.218994
24.68 551.273315
24.70 561.819885
24.72 565.236694
24.74 558.780701
24.76 579.895996
24.78 582.416687
24.80 555.764038
24.82 571.034058
24.84 598.793762
24.86 607.660583
24.88 605.745972
24.90 577.715881
24.92 575.24408
24.94 572.063416
24.96 580.130066
24.98 577.059326
25.00 571.158813
25.02 566.159546
25.04 568.445251
25.06 573.353516
25.08 586.541687
25.10 592.182495
25.12 592.739624
25.14 582.993347
25.16 580.725891
25.18 581.05304
25.20 581.755188
25.22 577.240234
25.24 586.705322
25.26 592.802979
25.28 583.485107
25.30 574.677124
25.32 582.022949
25.34 577.063965
25.36 580.832153
25.38 563.126709
25.40 562.3078
25.42 576.880371
25.44 581.896606
25.46 573.115417
25.48 567.553223
25.50 566.144348
25.52 567.771851
25.54 571.318604
25.56 575.067017
25.58 577.932983
25.60 580.884094
25.62 575.602844
25.64 590.759583
25.66 584.657593
25.68 579.352051
25.70 573.446106
25.72 586.745667
25.74 595.875122
25.76 604.225281
25.78 607.880005
25.80 600.32312
25.82 567.282043
25.84 556.301147
25.86 570.754333
25.88 590.370422
25.90 566.14624
25.92 584.50885
25.94 593.847839
25.96 579.805054
25.98 601.137268
26.00 590.159607
26.02 590.477173
26.04 588.6828
26.06 587.661926
26.08 586.778198
26.10 599.120728
26.12 568.517761
26.14 570.046387
26.16 586.539246
26.18 573.075073
26.20 563.885193
26.22 585.470215
26.24 608.030884
26.26 582.632813
26.28 575.588318
26.30 592.328369
26.32 596.718323
26.34 576.793762
26.36 574.676453
26.38 578.29364
26.40 582.713928
26.42 572.363586
26.44 557.828918
26.46 570.722351
26.48 598.203064
26.50 584.836548
26.52 572.921692
26.54 572.516418
26.56 549.707092
26.58 561.509216
26.60 567.122742
26.62 555.374451
26.64 555.146729
26.66 560.158936
26.68 565.440674
26.70 564.831665
26.72 563.064453
26.74 559.62738
26.76 567.785583
26.78 552.650391
26.80 567.573975
26.82 582.479065
26.84 577.054382
26.86 580.601868
26.88 585.439758
26.90 559.563965
26.92 573.165344
26.94 566.845947
26.96 567.092834
26.98 574.161377
27.00 565.002136
27.02 565.548157
27.04 571.864136
27.06 569.366333
27.08 570.302185
27.10 567.614807
27.12 572.447571
27.14 579.279663
27.16 582.27594
27.18 577.578857
27.20 557.659546
27.22 570.541077
27.24 578.256531
27.26 581.890076
27.28 576.452576
27.30 569.251831
27.32 578.559265
27.34 587.358276
27.36 575.044678
27.38 557.664429
27.40 555.127686
27.42 579.589844
27.44 581.910095
27.46 588.062927
27.48 591.
27.50 577.917603
27.52 569.121643
27.54 563.405396
27.56 557.470093
27.58 569.054932
27.60 591.067993
27.62 576.744873
27.64 569.473267
27.66 577.281372
27.68 573.864563
27.70 577.33551
27.72 587.775391
27.74 571.555542
27.76 566.522217
27.78 568.635193
27.80 584.280212
27.82 580.860046
27.84 573.987427
27.86 579.619446
27.88 580.294739
27.90 580.691833
27.92 581.180359
27.94 554.589844
27.96 569.115601
27.98 592.42627
28.00 585.584839
28.02 580.93457
28.04 576.1745
28.06 573.548889
28.08 571.737305
28.10 581.845032
28.12 574.832031
28.14 563.970886
28.16 563.437378
28.18 583.843018
28.20 599.333008
28.22 592.700867
28.24 597.338013
28.26 603.379822
28.28 599.853271
28.30 588.785034
28.32 594.45166
28.34 601.827393
28.36 602.082031
28.38 617.53595
28.40 617.72113
28.42 596.65686
28.44 602.312683
28.46 594.694153
28.48 584.528625
28.50 590.390869
28.52 593.458008
28.54 597.598755
28.56 601.354248
28.58 606.890259
28.60 603.54303
28.62 595.567993
28.64 610.706543
28.66 609.894226
28.68 603.055115
28.70 594.200073
28.72 599.027222
28.74 603.681946
28.76 590.366821
28.78 584.572083
28.80 578.110596
28.82 583.017456
28.84 572.675293
28.86 573.297668
28.88 569.488098
28.90 570.724609
28.92 570.910461
28.94 565.07135
28.96 566.163879
28.98 574.407349
29.00 566.76001
29.02 565.792664
29.04 554.640442
29.06 563.170654
29.08 576.582947
29.10 574.132507
29.12 567.417114
29.14 565.761536
29.16 555.607788
29.18 563.450623
29.20 568.112427
29.22 565.457581
29.24 555.597229
29.26 550.175964
29.28 561.894531
29.30 555.928345
29.32 553.992981
29.34 539.900085
29.36 545.146484
29.38 542.728027
29.40 544.645996
29.42 540.940613
29.44 537.478271
29.46 549.339905
29.48 548.44751
29.50 540.925659
29.52 541.579285
29.54 530.761719
29.56 531.243347
29.58 540.790466
29.60 541.380249
29.62 551.807434
29.64 555.540161
29.66 542.677917
29.68 515.938232
29.70 523.867737
29.72 539.433899
29.74 556.922607
29.76 554.064148
29.78 540.681274
29.80 540.10199
29.82 534.098267
29.84 538.408997
29.86 551.810181
29.88 553.646606
29.90 547.316284
29.92 541.976563
29.94 528.354736
29.96 515.991699
29.98 530.673462
30.00 519.940674
30.02 527.062317
30.04 528.954041
30.06 543.550964
30.08 539.705688
30.10 524.92627
30.12 517.176697
30.14 518.340027
30.16 526.873718
30.18 532.559143
30.20 536.727295
30.22 538.773193
30.24 529.055176
30.26 510.796753
30.28 513.34845
30.30 506.209045
30.32 495.259521
30.34 514.761353
30.36 537.08252
30.38 534.952637
30.40 534.140259
30.42 530.530518
30.44 524.452881
30.46 527.207581
30.48 518.405396
30.50 521.854919
30.52 521.422424
30.54 527.403748
30.56 509.150421
30.58 509.647766
30.60 514.711426
30.62 520.10321
30.64 507.596344
30.66 506.708862
30.68 511.435822
30.70 508.444366
30.72 497.611023
30.74 496.566803
30.76 525.612854
30.78 524.643188
30.80 501.298859
30.82 502.368164
30.84 500.500824
30.86 502.744415
30.88 508.125488
30.90 502.450806
30.92 494.596832
30.94 508.585724
30.96 513.51709
30.98 511.820404
31.00 497.012421
31.02 495.874939
31.04 506.724121
31.06 507.291046
31.08 506.479156
31.10 504.00351
31.12 506.561646
31.14 503.415436
31.16 486.942352
31.18 478.760986
31.20 490.834076
31.22 492.53717
31.24 487.367279
31.26 503.133362
31.28 509.502655
31.30 515.758484
31.32 493.66452
31.34 494.462982
31.36 497.395508
31.38 498.980896
31.40 488.319061
31.42 477.97525
31.44 485.021545
31.46 505.696655
31.48 515.197571
31.50 517.516907
31.52 504.729828
31.54 492.676544
31.56 487.6828
31.58 501.143219
31.60 506.652161
31.62 493.082947
31.64 499.834137
31.66 494.697327
31.68 485.761322
31.70 490.872223
31.72 485.644073
31.74 492.313599
31.76 500.669037
31.78 506.144775
31.80 510.36908
31.82 515.537354
31.84 537.186462
31.86 547.069641
31.88 542.332214
31.90 518.55188
31.92 508.495667
31.94 510.125336
31.96 514.819397
31.98 524.441284
32.00 523.069031
32.02 528.557434
32.04 522.235291
32.06 513.129272
32.08 533.154297
32.10 535.195313
32.12 528.413696
32.14 542.888794
32.16 523.86969
32.18 513.359741
32.20 524.439026
32.22 520.926331
32.24 503.375122
32.26 515.614868
32.28 529.195862
32.30 519.215576
32.32 504.357941
32.34 500.125427
32.36 490.98175
32.38 494.401031
32.40 488.642487
32.42 493.972076
32.44 510.454895
32.46 506.05011
32.48 489.819855
32.50 502.460938
32.52 495.908173
32.54 478.189484
32.56 464.279663
32.58 465.793976
32.60 484.779602
32.62 475.870514
32.64 469.447571
32.66 473.863861
32.68 472.69754
32.70 474.79834
32.72 472.641724
32.74 491.341583
32.76 478.04776
32.78 456.925934
32.80 444.354004
32.82 459.756989
32.84 463.888855
32.86 471.964783
32.88 454.180084
32.90 446.089661
32.92 454.153717
32.94 452.413452
32.96 447.778381
32.98 435.974884
33.00 435.184418
33.02 442.510803
33.04 437.273621
33.06 433.838745
33.08 443.255829
33.10 433.557587
33.12 439.397552
33.14 451.585571
33.16 448.825073
33.18 442.892975
33.20 421.085785
33.22 435.536072
33.24 446.546661
33.26 445.086243
33.28 438.674805
33.30 438.883911
33.32 445.241058
33.34 443.998566
33.36 444.688171
33.38 447.391876
33.40 444.557953
33.42 451.182678
33.44 454.048431
33.46 446.239288
33.48 443.120819
33.50 445.609741
33.52 437.384155
33.54 428.874481
33.56 425.501312
33.58 435.526398
33.60 452.646332
33.62 441.681274
33.64 443.84845
33.66 441.822113
33.68 426.797424
33.70 430.625153
33.72 445.685638
33.74 451.221008
33.76 444.638519
33.78 438.616058
33.80 436.723877
33.82 440.29776
33.84 434.550873
33.86 424.137177
33.88 423.354828
33.90 423.855347
33.92 432.361969
33.94 432.152802
33.96 413.003906
33.98 422.096069
34.00 436.02887
34.02 435.742188
34.04 430.552216
34.06 427.422852
34.08 431.22345
34.10 434.472168
34.12 434.69519
34.14 432.140228
34.16 428.67923
34.18 424.408997
34.20 437.678558
34.22 440.122498
34.24 425.646027
34.26 426.067383
34.28 431.09433
34.30 428.137238
34.32 445.886444
34.34 443.751526
34.36 434.802643
34.38 427.290649
34.40 425.294495
34.42 431.632996
34.44 438.430359
34.46 448.387054
34.48 457.043274
34.50 444.393127
34.52 440.199402
34.54 441.200256
34.56 442.518341
34.58 449.310699
34.60 440.323486
34.62 442.788727
34.64 439.884949
34.66 430.270416
34.68 434.648102
34.70 433.117828
34.72 440.601624
34.74 446.581116
34.76 440.060608
34.78 439.397491
34.80 437.334381
34.82 431.55249
34.84 432.780426
34.86 434.284668
34.88 433.979645
34.90 432.007477
34.92 436.355621
34.94 430.505096
34.96 423.14975
34.98 424.125549
35.00 426.660278
35.02 428.358643
35.04 434.467346
35.06 428.001862
35.08 423.824982
35.10 433.140289
35.12 414.922241
35.14 405.621002
35.16 415.078949
35.18 412.11908
35.20 412.801147
35.22 409.139954
35.24 405.591888
35.26 412.62558
35.28 403.176514
35.30 404.730408
35.32 405.669189
35.34 397.017853
35.36 390.382202
35.38 399.718018
35.40 405.530121
35.42 402.853638
35.44 402.307037
35.46 394.613647
35.48 392.875732
35.50 398.462646
35.52 386.688965
35.54 394.707733
35.56 377.008575
35.58 371.846649
35.60 382.483063
35.62 402.023224
35.64 397.787781
35.66 380.543488
35.68 382.023254
35.70 382.622772
35.72 380.39151
35.74 390.171173
35.76 399.693359
35.78 389.566772
35.80 391.102448
35.82 395.945709
35.84 390.963623
35.86 386.330231
35.88 376.894806
35.90 382.682617
35.92 378.759613
35.94 374.031616
35.96 370.819672
35.98 379.949005
36.00 374.104309
36.02 387.888824
36.04 380.02771
36.06 371.752075
36.08 370.048706
36.10 374.28186
36.12 360.729858
36.14 353.277344
36.16 362.675018
36.18 367.668488
36.20 361.935455
36.22 364.411957
36.24 358.974091
36.26 354.993317
36.28 356.755829
36.30 355.836273
36.32 362.178375
36.34 365.461304
36.36 355.988831
36.38 368.295563
36.40 366.544922
36.42 364.466614
36.44 356.442291
36.46 361.533356
36.48 363.939087
36.50 351.251465
36.52 351.558624
36.54 366.967163
36.56 359.291412
36.58 353.440735
36.60 353.744568
36.62 345.634796
36.64 344.153381
36.66 346.224182
36.68 357.751953
36.70 356.934967
36.72 349.595245
36.74 336.367584
36.76 338.037659
36.78 342.798492
36.80 352.457825
36.82 345.414551
36.84 349.487152
36.86 353.838104
36.88 350.230225
36.90 347.234589
36.92 344.88205
36.94 349.882141
36.96 351.454529
36.98 352.344849
37.00 348.091675
37.02 364.22287
37.04 355.524994
37.06 343.650604
37.08 350.076965
37.10 342.824982
37.12 334.976776
37.14 344.340729
37.16 356.162567
37.18 339.711945
37.20 330.110931
37.22 330.658356
37.24 344.115784
37.26 344.091614
37.28 355.524292
37.30 345.919128
37.32 334.414276
37.34 323.362793
37.36 323.805725
37.38 336.337372
37.40 339.149994
37.42 331.477448
37.44 334.294769
37.46 338.695374
37.48 338.214172
37.50 328.141968
37.52 335.924347
37.54 334.395447
37.56 336.41687
37.58 333.16983
37.60 329.682312
37.62 329.874878
37.64 328.558746
37.66 334.911743
37.68 329.830963
37.70 328.223053
37.72 331.357056
37.74 328.377075
37.76 335.205872
37.78 341.261017
37.80 344.396576
37.82 340.419403
37.84 335.952393
37.86 332.080261
37.88 335.21759
37.90 333.194794
37.92 337.160034
37.94 330.217834
37.96 318.462128
37.98 319.39447
38.00 321.707916
38.02 335.296997
38.04 317.847015
38.06 320.607056
38.08 313.252747
38.10 303.415955
38.12 306.927551
38.14 318.689026
38.16 320.564362
38.18 326.64389
38.20 331.142609
38.22 334.278076
38.24 334.883667
38.26 336.540436
38.28 330.483582
38.30 328.335999
38.32 319.259705
38.34 324.607635
38.36 313.778137
38.38 311.528473
38.40 308.94635
38.42 302.292175
38.44 308.984741
38.46 301.784119
38.48 314.083771
38.50 348.838196
38.52 331.557556
38.54 307.476166
38.56 302.321259
38.58 311.444672
38.60 331.814301
38.62 325.530334
38.64 303.45285
38.66 304.28479
38.68 304.230591
38.70 314.906464
38.72 311.828033
38.74 312.630829
38.76 309.394043
38.78 324.130951
38.80 306.690063
38.82 300.322113
38.84 302.902527
38.86 296.013947
38.88 300.02298
38.90 301.409058
38.92 302.753265
38.94 301.440216
38.96 298.982361
38.98 297.306732
39.00 302.505219
39.02 307.630798
39.04 306.759308
39.06 308.043945
39.08 300.221069
39.10 304.195129
39.12 283.803894
39.14 287.669586
39.16 284.676819
39.18 289.142639
39.20 300.913208
39.22 293.638275
39.24 303.294556
39.26 301.150848
39.28 306.924011
39.30 299.968475
39.32 295.308594
39.34 317.357147
39.36 300.341888
39.38 305.091797
39.40 300.676544
39.42 286.35437
39.44 277.203583
39.46 288.623383
39.48 299.151672
39.50 299.691101
39.52 291.102295
39.54 299.330658
39.56 294.487396
39.58 289.899139
39.60 284.517334
39.62 272.955231
39.64 276.096497
39.66 282.472137
39.68 279.208344
39.70 287.529053
39.72 288.198456
39.74 282.720306
39.76 276.208466
39.78 272.927185
39.80 278.739716
39.82 286.149567
39.84 285.188171
39.86 281.596741
39.88 276.879791
39.90 271.458282
39.92 271.64212
39.94 263.901276
39.96 267.71579
39.98 264.527008
40.00 272.97702
