!@!!GADDS PLOTSO FILE: Chi integration type
!@!!Title/SampleName: ML_MAPbX3
!@!!User: NREL
!@!!Site: NREL SERF C211; SN 2510
!@!!Frame: 081022_MLProject_000_015.gfrm
!@!!Wavelengths    1.54184   1.54056   1.54439
!@!!Frame angles: 2Theta: 28.000 Omega: 5.000 Phi: 0.000 Chi: 90.000
!@!!Integration range: 2Theta: 10.000 to 40.000  Gamma: -135.000 to -45.000
!@!!Integration method: bin normalized
!@!N
!@!SS
!@!M
!@!L 0.0 0.0 0.0 0.0
!@!XDegrees
!@!YCounts
10.00 173.226135
10.02 168.920227
10.04 173.775635
10.06 171.558807
10.08 173.96492
10.10 178.271484
10.12 172.487991
10.14 173.293747
10.16 169.129242
10.18 168.076797
10.20 168.654541
10.22 172.627274
10.24 177.196075
10.26 172.30455
10.28 166.616272
10.30 164.302643
10.32 172.320038
10.34 173.886215
10.36 172.174179
10.38 169.293213
10.40 170.975281
10.42 183.263535
10.44 181.190247
10.46 187.241379
10.48 187.295517
10.50 191.359833
10.52 180.609024
10.54 178.619125
10.56 182.092514
10.58 185.84996
10.60 182.615067
10.62 187.244781
10.64 194.286041
10.66 197.536484
10.68 188.646011
10.70 189.611847
10.72 194.444534
10.74 193.092651
10.76 198.575012
10.78 195.509201
10.80 202.167999
10.82 198.628784
10.84 197.022217
10.86 195.412659
10.88 195.293137
10.90 193.962372
10.92 197.069641
10.94 198.585312
10.96 192.905518
10.98 195.909378
11.00 199.164261
11.02 194.699661
11.04 194.112076
11.06 200.425461
11.08 197.172287
11.10 204.981018
11.12 203.634735
11.14 201.276901
11.16 199.973419
11.18 199.95108
11.20 205.573318
11.22 207.560257
11.24 201.547226
11.26 195.954117
11.28 204.597382
11.30 202.661316
11.32 206.658478
11.34 203.738449
11.36 213.682129
11.38 219.575912
11.40 214.407013
11.42 215.708191
11.44 212.015747
11.46 213.975082
11.48 212.978577
11.50 216.274109
11.52 218.68483
11.54 219.781586
11.56 222.591812
11.58 219.026581
11.60 228.90976
11.62 217.116531
11.64 214.057526
11.66 216.062393
11.68 228.707657
11.70 223.170532
11.72 224.981171
11.74 221.797745
11.76 222.790375
11.78 221.833801
11.80 225.896973
11.82 229.907394
11.84 226.563644
11.86 226.656723
11.88 226.158081
11.90 233.251007
11.92 241.219925
11.94 235.599869
11.96 231.987869
11.98 231.760269
12.00 234.60762
12.02 239.741455
12.04 247.347839
12.06 251.199066
12.08 242.484772
12.10 250.492203
12.12 257.553192
12.14 257.07785
12.16 261.624146
12.18 265.682587
12.20 270.82666
12.22 271.073547
12.24 277.204559
12.26 288.351135
12.28 288.29538
12.30 292.148743
12.32 297.889801
12.34 307.922211
12.36 305.675446
12.38 319.938782
12.40 316.189636
12.42 317.99823
12.44 332.697601
12.46 338.560822
12.48 334.884155
12.50 346.872162
12.52 350.196075
12.54 355.569977
12.56 360.325409
12.58 357.30014
12.60 363.932068
12.62 369.096497
12.64 364.599579
12.66 356.189789
12.68 350.040527
12.70 343.026276
12.72 335.096375
12.74 323.098969
12.76 314.021454
12.78 308.782318
12.80 308.094666
12.82 290.554382
12.84 289.708649
12.86 279.148773
12.88 275.293274
12.90 273.040894
12.92 271.758118
12.94 268.256348
12.96 273.141357
12.98 272.303101
13.00 263.241577
13.02 267.138702
13.04 268.767029
13.06 262.511688
13.08 256.092926
13.10 259.142273
13.12 266.422363
13.14 271.89328
13.16 270.447174
13.18 266.722595
13.20 260.169434
13.22 256.759521
13.24 258.308014
13.26 260.910889
13.28 259.073914
13.30 264.173462
13.32 271.111115
13.34 271.984772
13.36 269.275482
13.38 272.209625
13.40 272.519287
13.42 272.380829
13.44 275.773102
13.46 272.61734
13.48 272.378296
13.50 269.773651
13.52 268.572449
13.54 284.996796
13.56 287.99588
13.58 276.357391
13.60 280.992767
13.62 290.330933
13.64 288.206757
13.66 295.115936
13.68 303.991425
13.70 313.91394
13.72 317.268005
13.74 329.0271
13.76 331.292175
13.78 330.57901
13.80 337.696686
13.82 343.120544
13.84 359.745361
13.86 364.371918
13.88 363.135345
13.90 377.364044
13.92 377.310577
13.94 386.178497
13.96 400.031189
13.98 414.724548
14.00 437.43576
14.02 451.49173
14.04 454.806732
14.06 464.380096
14.08 479.200256
14.10 488.875427
14.12 496.133087
14.14 498.16629
14.16 517.835754
14.18 526.449707
14.20 527.807922
14.22 529.412292
14.24 521.383484
14.26 516.242676
14.28 497.156311
14.30 485.24942
14.32 475.144135
14.34 450.484589
14.36 445.259277
14.38 425.71994
14.40 394.939117
14.42 383.665039
14.44 374.708771
14.46 367.756653
14.48 362.027679
14.50 350.286865
14.52 347.475433
14.54 340.737457
14.56 336.589447
14.58 332.648956
14.60 327.385223
14.62 336.113495
14.64 334.005341
14.66 323.371521
14.68 317.562103
14.70 315.582153
14.72 328.130096
14.74 332.64975
14.76 333.631958
14.78 332.675507
14.80 320.57489
14.82 323.163971
14.84 337.496826
14.86 341.666016
14.88 342.818573
14.90 341.498138
14.92 345.051575
14.94 351.846161
14.96 365.474396
14.98 364.500305
15.00 367.911652
15.02 378.259308
15.04 389.287384
15.06 389.645508
15.08 398.300354
15.10 409.826965
15.12 419.217682
15.14 429.684937
15.16 438.150269
15.18 440.312286
15.20 446.39566
15.22 454.34491
15.24 458.727051
15.26 459.196259
15.28 454.411835
15.30 453.638733
15.32 459.446747
15.34 452.030823
15.36 451.767487
15.38 445.997406
15.40 437.559021
15.42 425.782104
15.44 417.504059
15.46 399.229065
15.48 389.867767
15.50 375.928192
15.52 364.551758
15.54 360.379974
15.56 360.587128
15.58 354.101807
15.60 340.058167
15.62 331.36264
15.64 333.358429
15.66 329.626007
15.68 323.082703
15.70 325.963837
15.72 327.426605
15.74 316.977997
15.76 319.759399
15.78 318.724823
15.80 316.907074
15.82 318.626007
15.84 313.288239
15.86 315.398193
15.88 316.52124
15.90 322.082123
15.92 322.106354
15.94 315.209991
15.96 317.208252
15.98 319.745728
16.00 321.81665
16.02 309.419617
16.04 317.281158
16.06 316.60144
16.08 313.197723
16.10 310.873688
16.12 310.405579
16.14 313.319702
16.16 329.581299
16.18 322.268127
16.20 317.393829
16.22 320.060669
16.24 322.203583
16.26 320.572113
16.28 316.296783
16.30 321.948456
16.32 317.420624
16.34 319.585968
16.36 316.720795
16.38 321.53009
16.40 321.676849
16.42 316.085449
16.44 320.38678
16.46 325.115814
16.48 327.08551
16.50 331.473602
16.52 331.063995
16.54 329.611389
16.56 329.203674
16.58 334.980438
16.60 333.555969
16.62 329.612549
16.64 326.522644
16.66 322.717499
16.68 324.998962
16.70 330.470306
16.72 329.920197
16.74 330.410034
16.76 335.30191
16.78 332.600494
16.80 335.39212
16.82 332.083588
16.84 328.897552
16.86 334.46814
16.88 334.601074
16.90 334.306091
16.92 335.064056
16.94 326.764496
16.96 329.227173
16.98 336.98233
17.00 340.250458
17.02 334.248199
17.04 336.40863
17.06 346.974243
17.08 341.716095
17.10 337.045593
17.12 336.070648
17.14 339.809753
17.16 346.244263
17.18 344.646698
17.20 337.720306
17.22 337.384277
17.24 343.445099
17.26 344.956635
17.28 342.326019
17.30 337.953552
17.32 350.622986
17.34 348.78421
17.36 347.66391
17.38 353.741516
17.40 354.723755
17.42 349.740234
17.44 346.221283
17.46 345.910339
17.48 355.316559
17.50 350.555878
17.52 345.976532
17.54 356.340393
17.56 352.237183
17.58 352.106537
17.60 357.261902
17.62 361.623108
17.64 367.107208
17.66 368.065948
17.68 362.845825
17.70 362.080627
17.72 366.069702
17.74 364.860504
17.76 369.161224
17.78 361.182739
17.80 357.196136
17.82 365.819702
17.84 368.65033
17.86 368.645905
17.88 361.077087
17.90 358.65976
17.92 364.720306
17.94 370.481964
17.96 374.741699
17.98 375.960114
18.00 374.507172
18.02 368.624207
18.04 361.014465
18.06 364.481598
18.08 369.08075
18.10 378.796051
18.12 381.23822
18.14 376.783478
18.16 369.239319
18.18 366.680145
18.20 368.455627
18.22 374.399689
18.24 376.454498
18.26 377.285645
18.28 390.583466
18.30 388.774139
18.32 390.455597
18.34 387.290619
18.36 381.25412
18.38 382.980804
18.40 385.9617
18.42 386.709106
18.44 388.841949
18.46 395.669525
18.48 385.694061
18.50 390.222076
18.52 398.326172
18.54 396.230072
18.56 387.230499
18.58 388.203552
18.60 387.726379
18.62 396.516235
18.64 400.575897
18.66 394.191528
18.68 389.1008
18.70 393.678192
18.72 398.550354
18.74 390.500763
18.76 394.179871
18.78 408.330292
18.80 413.443909
18.82 404.259216
18.84 411.408386
18.86 404.579346
18.88 396.484314
18.90 402.417603
18.92 407.251923
18.94 405.276703
18.96 405.091553
18.98 407.637939
19.00 408.730865
19.02 410.461945
19.04 405.565247
19.06 409.788879
19.08 415.533752
19.10 409.815002
19.12 411.005188
19.14 416.446106
19.16 414.791748
19.18 415.140045
19.20 405.551392
19.22 422.999756
19.24 424.57135
19.26 422.687408
19.28 423.539276
19.30 415.798401
19.32 410.891998
19.34 425.839874
19.36 431.244415
19.38 426.008698
19.40 432.883423
19.42 433.063141
19.44 434.689056
19.46 436.09256
19.48 436.608429
19.50 433.427094
19.52 434.239929
19.54 445.180359
19.56 439.940308
19.58 440.733734
19.60 435.347778
19.62 438.156464
19.64 441.036957
19.66 441.511749
19.68 436.841766
19.70 441.630768
19.72 439.704712
19.74 448.222412
19.76 461.260406
19.78 456.320068
19.80 456.155731
19.82 451.933746
19.84 454.442291
19.86 453.832642
19.88 453.451508
19.90 454.174591
19.92 460.829132
19.94 464.717682
19.96 472.272736
19.98 474.493439
20.00 477.863495
20.02 477.036926
20.04 474.551849
20.06 467.860596
20.08 468.541138
20.10 473.874023
20.12 479.259125
20.14 489.089752
20.16 475.216827
20.18 473.541809
20.20 477.97702
20.22 476.805389
20.24 477.789185
20.26 471.329193
20.28 473.593323
20.30 485.613922
20.32 475.862518
20.34 480.97879
20.36 485.077484
20.38 484.143127
20.40 484.73761
20.42 487.978271
20.44 475.750824
20.46 483.817902
20.48 486.586304
20.50 484.732574
20.52 483.06723
20.54 485.494141
20.56 484.289551
20.58 485.628265
20.60 479.359283
20.62 478.529297
20.64 479.976868
20.66 480.304688
20.68 479.247223
20.70 494.740509
20.72 498.564423
20.74 497.785706
20.76 495.342651
20.78 495.31662
20.80 491.584229
20.82 501.547699
20.84 503.507751
20.86 500.995605
20.88 497.220886
20.90 494.838989
20.92 493.319092
20.94 496.969147
20.96 505.730804
20.98 508.234741
21.00 507.60376
21.02 496.241699
21.04 500.316132
21.06 511.336029
21.08 509.171539
21.10 515.787781
21.12 516.150452
21.14 515.978699
21.16 519.230042
21.18 514.093445
21.20 514.960144
21.22 511.835724
21.24 511.128754
21.26 511.880981
21.28 511.075317
21.30 518.324829
21.32 524.337036
21.34 524.695313
21.36 526.044189
21.38 528.514343
21.40 529.713501
21.42 528.826721
21.44 533.367554
21.46 524.133972
21.48 536.714417
21.50 538.065674
21.52 534.102844
21.54 535.85199
21.56 532.419373
21.58 534.29126
21.60 535.807556
21.62 535.724915
21.64 540.693542
21.66 536.584106
21.68 547.686523
21.70 546.059631
21.72 545.312561
21.74 548.879761
21.76 549.826294
21.78 545.692566
21.80 547.977478
21.82 545.070068
21.84 545.787476
21.86 559.089661
21.88 559.290894
21.90 560.66095
21.92 547.222412
21.94 551.635498
21.96 540.519409
21.98 543.507996
22.00 553.592834
22.02 554.737671
22.04 553.413269
22.06 557.925476
22.08 553.101501
22.10 551.84137
22.12 553.842285
22.14 552.857483
22.16 550.245483
22.18 551.404114
22.20 554.221924
22.22 554.056396
22.24 558.347534
22.26 553.409363
22.28 549.929443
22.30 552.950928
22.32 561.205688
22.34 566.852905
22.36 560.075073
22.38 564.97644
22.40 573.116272
22.42 568.034058
22.44 564.920288
22.46 566.208313
22.48 569.705811
22.50 566.439087
22.52 570.10498
22.54 568.039307
22.56 566.394836
22.58 562.054138
22.60 566.956604
22.62 567.987244
22.64 572.985962
22.66 576.120239
22.68 568.804688
22.70 561.13092
22.72 576.308838
22.74 575.259094
22.76 573.12677
22.78 574.490662
22.80 579.894348
22.82 583.242432
22.84 588.284973
22.86 586.095825
22.88 580.262451
22.90 585.012085
22.92 578.528137
22.94 578.250671
22.96 587.876343
22.98 587.553772
23.00 578.591187
23.02 584.417542
23.04 578.626892
23.06 581.973694
23.08 578.354309
23.10 581.527832
23.12 578.746826
23.14 583.173462
23.16 577.899414
23.18 587.438843
23.20 589.684998
23.22 587.13855
23.24 591.510437
23.26 593.642334
23.28 590.755737
23.30 578.027893
23.32 582.924377
23.34 585.152649
23.36 581.768494
23.38 577.466553
23.40 583.440918
23.42 585.866028
23.44 589.439819
23.46 587.300293
23.48 585.466064
23.50 589.138184
23.52 583.566528
23.54 587.196411
23.56 583.080505
23.58 588.168518
23.60 591.62561
23.62 586.506958
23.64 589.325195
23.66 593.374084
23.68 591.352112
23.70 585.701843
23.72 580.991089
23.74 592.42157
23.76 593.007019
23.78 597.885864
23.80 593.055725
23.82 592.156555
23.84 593.702026
23.86 590.350403
23.88 608.192444
23.90 610.454956
23.92 594.702454
23.94 598.108276
23.96 608.824097
23.98 599.309387
24.00 594.272461
24.02 599.522156
24.04 605.585144
24.06 602.778748
24.08 602.921936
24.10 597.201294
24.12 590.820435
24.14 596.128479
24.16 601.448059
24.18 606.486694
24.20 601.795532
24.22 599.531982
24.24 598.202881
24.26 605.240662
24.28 608.065735
24.30 604.776733
24.32 607.148193
24.34 609.871155
24.36 609.437134
24.38 603.098389
24.40 599.396118
24.42 603.197449
24.44 605.504639
24.46 619.75531
24.48 622.193298
24.50 611.748657
24.52 601.331726
24.54 605.218628
24.56 612.869141
24.58 609.115662
24.60 613.985291
24.62 618.251099
24.64 611.901978
24.66 595.056885
24.68 592.073242
24.70 605.355591
24.72 610.516235
24.74 607.988464
24.76 612.520142
24.78 614.67926
24.80 604.384583
24.82 609.930237
24.84 619.133423
24.86 617.161072
24.88 619.933533
24.90 615.181824
24.92 614.544617
24.94 617.730469
24.96 618.463013
24.98 616.549561
25.00 612.973938
25.02 603.480835
25.04 604.820374
25.06 614.137207
25.08 618.69281
25.10 624.7323
25.12 629.15448
25.14 620.619568
25.16 620.721741
25.18 613.332214
25.20 610.630188
25.22 609.230591
25.24 615.524292
25.26 623.397217
25.28 617.732727
25.30 609.697021
25.32 617.877747
25.34 610.864685
25.36 607.378784
25.38 609.623108
25.40 610.161011
25.42 617.385742
25.44 614.119202
25.46 613.638306
25.48 610.392456
25.50 608.890381
25.52 606.884399
25.54 616.754272
25.56 615.280579
25.58 619.728577
25.60 615.241821
25.62 612.065857
25.64 612.900513
25.66 613.786743
25.68 613.387451
25.70 611.551575
25.72 615.452209
25.74 624.06958
25.76 625.193848
25.78 629.265015
25.80 619.885559
25.82 603.433167
25.84 600.919312
25.86 610.722107
25.88 610.179688
25.90 610.590332
25.92 620.48877
25.94 626.276184
25.96 617.801392
25.98 619.190247
26.00 615.117493
26.02 617.874268
26.04 617.025269
26.06 607.950134
26.08 612.302002
26.10 614.331177
26.12 603.672607
26.14 605.290222
26.16 618.917603
26.18 613.125793
26.20 609.036682
26.22 619.253235
26.24 622.444153
26.26 611.789246
26.28 612.054565
26.30 619.694031
26.32 620.613037
26.34 613.614319
26.36 618.277283
26.38 613.747131
26.40 612.465454
26.42 613.902771
26.44 604.459167
26.46 608.916077
26.48 621.316223
26.50 612.454224
26.52 609.523865
26.54 607.526917
26.56 607.559998
26.58 598.004456
26.60 596.075195
26.62 597.975159
26.64 595.884766
26.66 601.879456
26.68 597.306213
26.70 600.258057
26.72 603.659119
26.74 601.541626
26.76 604.706238
26.78 588.841797
26.80 602.036865
26.82 608.96283
26.84 611.073608
26.86 613.120728
26.88 612.409546
26.90 596.25885
26.92 604.599182
26.94 604.604675
26.96 606.099487
26.98 611.013428
27.00 598.983154
27.02 591.367737
27.04 594.4422
27.06 595.732178
27.08 602.778076
27.10 604.748962
27.12 605.788635
27.14 600.232666
27.16 602.791565
27.18 603.917358
27.20 595.909729
27.22 598.857544
27.24 597.048889
27.26 596.968811
27.28 604.550476
27.30 604.749573
27.32 608.219727
27.34 599.976868
27.36 598.532532
27.38 591.984192
27.40 594.491089
27.42 599.742615
27.44 598.184448
27.46 603.988342
27.48 601.214233
27.50 599.238708
27.52 598.442078
27.54 599.643799
27.56 591.694153
27.58 594.502625
27.60 603.014038
27.62 605.007507
27.64 598.827271
27.66 610.935852
27.68 610.092957
27.70 613.430542
27.72 607.902649
27.74 600.859741
27.76 599.04425
27.78 597.33313
27.80 614.030334
27.82 611.988403
27.84 607.509888
27.86 607.082886
27.88 598.790833
27.90 612.246277
27.92 614.363342
27.94 601.950867
27.96 602.771362
27.98 606.55426
28.00 609.354248
28.02 614.541504
28.04 606.24823
28.06 606.869873
28.08 606.316528
28.10 609.761536
28.12 611.214661
28.14 610.008484
28.16 622.708374
28.18 624.183838
28.20 620.513245
28.22 621.409241
28.24 623.057617
28.26 628.340149
28.28 629.028198
28.30 631.730347
28.32 636.367371
28.34 641.633911
28.36 644.638184
28.38 646.940125
28.40 657.29303
28.42 661.804993
28.44 678.114868
28.46 681.592773
28.48 691.375549
28.50 694.591125
28.52 704.208557
28.54 720.684204
28.56 734.492249
28.58 738.197021
28.60 748.028992
28.62 755.033691
28.64 762.10376
28.66 748.505554
28.68 736.042725
28.70 745.023499
28.72 749.417114
28.74 745.024231
28.76 722.912354
28.78 710.916687
28.80 693.016296
28.82 681.280212
28.84 673.936462
28.86 665.724609
28.88 652.717163
28.90 639.933105
28.92 640.041992
28.94 633.209229
28.96 629.826111
28.98 628.49231
29.00 622.467224
29.02 616.375366
29.04 607.323669
29.06 607.623169
29.08 607.057739
29.10 604.147034
29.12 604.115662
29.14 596.910583
29.16 596.713135
29.18 598.073181
29.20 596.348083
29.22 598.1474
29.24 590.878113
29.26 586.499939
29.28 589.795044
29.30 593.999878
29.32 593.540161
29.34 585.826355
29.36 586.114563
29.38 590.73584
29.40 586.453979
29.42 584.174683
29.44 582.644958
29.46 584.236633
29.48 581.706726
29.50 578.494812
29.52 570.575073
29.54 566.769531
29.56 570.915283
29.58 575.64325
29.60 571.418396
29.62 568.997192
29.64 573.314514
29.66 574.195374
29.68 571.183044
29.70 562.452087
29.72 567.647644
29.74 579.420166
29.76 578.723389
29.78 580.335876
29.80 579.600647
29.82 567.125916
29.84 564.749329
29.86 571.947754
29.88 575.236633
29.90 572.256775
29.92 565.525208
29.94 565.200989
29.96 562.653442
29.98 561.557251
30.00 557.682007
30.02 562.484863
30.04 557.471741
30.06 562.796082
30.08 568.281799
30.10 568.249146
30.12 561.117249
30.14 555.533569
30.16 554.721497
30.18 560.899597
30.20 561.79541
30.22 565.243408
30.24 562.166931
30.26 555.293396
30.28 562.210083
30.30 554.207458
30.32 547.201355
30.34 550.235229
30.36 559.420532
30.38 559.60144
30.40 558.867615
30.42 556.870605
30.44 556.468323
30.46 560.800232
30.48 558.943054
30.50 558.844421
30.52 560.428711
30.54 567.139343
30.56 557.200989
30.58 554.594116
30.60 563.710144
30.62 571.774841
30.64 566.453064
30.66 557.781616
30.68 566.949768
30.70 569.270691
30.72 569.663696
30.74 572.268127
30.76 580.367615
30.78 584.050354
30.80 578.989441
30.82 576.269287
30.84 576.69104
30.86 590.124268
30.88 586.032837
30.90 585.032532
30.92 580.241699
30.94 584.993774
30.96 586.239014
30.98 586.594971
31.00 580.956177
31.02 574.358459
31.04 573.528076
31.06 574.124023
31.08 574.614563
31.10 571.525696
31.12 560.022156
31.14 559.473877
31.16 560.816284
31.18 554.363708
31.20 553.075989
31.22 543.993591
31.24 540.642334
31.26 542.845032
31.28 542.428894
31.30 554.343079
31.32 544.593994
31.34 541.344299
31.36 542.566711
31.38 534.178406
31.40 529.972534
31.42 529.683228
31.44 529.607788
31.46 532.965088
31.48 540.665161
31.50 545.116577
31.52 537.411926
31.54 525.970276
31.56 529.932617
31.58 535.409485
31.60 537.486694
31.62 528.871765
31.64 534.851746
31.66 529.998596
31.68 529.683594
31.70 531.466614
31.72 527.511902
31.74 532.910645
31.76 535.59082
31.78 534.578674
31.80 537.085999
31.82 542.584229
31.84 553.179932
31.86 556.714905
31.88 552.572998
31.90 549.684021
31.92 547.399597
31.94 546.613342
31.96 551.161011
31.98 557.560547
32.00 562.285095
32.02 567.899597
32.04 569.245911
32.06 561.409119
32.08 571.888977
32.10 569.009583
32.12 568.411804
32.14 566.163269
32.16 558.269714
32.18 557.769409
32.20 564.735962
32.22 564.873596
32.24 556.122986
32.26 552.71936
32.28 556.522522
32.30 547.291809
32.32 542.27478
32.34 539.02887
32.36 534.785034
32.38 538.602722
32.40 534.769836
32.42 536.288513
32.44 537.287476
32.46 537.407104
32.48 527.99762
32.50 532.586609
32.52 522.921875
32.54 512.842957
32.56 508.192749
32.58 508.566925
32.60 514.24884
32.62 513.296143
32.64 510.626373
32.66 504.810699
32.68 495.802368
32.70 503.669128
32.72 508.773499
32.74 511.783051
32.76 504.999237
32.78 495.587769
32.80 485.940674
32.82 493.329681
32.84 495.351196
32.86 498.522797
32.88 495.807495
32.90 497.870544
32.92 497.116455
32.94 493.347626
32.96 492.098419
32.98 487.696533
33.00 482.400177
33.02 481.502289
33.04 481.71579
33.06 485.468323
33.08 480.166656
33.10 473.827576
33.12 473.858063
33.14 480.860931
33.16 480.40387
33.18 475.231995
33.20 473.440582
33.22 479.272827
33.24 482.775177
33.26 479.243042
33.28 480.846893
33.30 483.202667
33.32 480.044739
33.34 476.098419
33.36 474.713165
33.38 475.635071
33.40 485.62207
33.42 485.34079
33.44 479.627441
33.46 476.210236
33.48 478.798706
33.50 477.683624
33.52 468.195557
33.54 467.139069
33.56 470.111389
33.58 471.929474
33.60 477.100952
33.62 470.911621
33.64 475.468964
33.66 474.508606
33.68 466.517731
33.70 468.226288
33.72 475.81131
33.74 471.038971
33.76 475.659515
33.78 471.291229
33.80 465.761353
33.82 467.237946
33.84 468.69574
33.86 467.641235
33.88 467.522583
33.90 465.47879
33.92 464.818481
33.94 462.470215
33.96 453.385956
33.98 452.80014
34.00 452.770264
34.02 453.610504
34.04 461.206299
34.06 456.302307
34.08 459.113434
34.10 456.813232
34.12 456.093292
34.14 458.400635
34.16 455.685944
34.18 456.656982
34.20 456.874298
34.22 450.505981
34.24 451.28772
34.26 458.486053
34.28 458.483612
34.30 456.047455
34.32 463.05127
34.34 464.832153
34.36 467.18454
34.38 460.781525
34.40 454.660034
34.42 456.936157
34.44 453.26886
34.46 458.838287
34.48 465.208221
34.50 462.949097
34.52 462.833405
34.54 457.74823
34.56 460.474396
34.58 466.863068
34.60 459.758453
34.62 457.85495
34.64 458.459412
34.66 456.244537
34.68 459.893341
34.70 463.442871
34.72 460.466156
34.74 462.615234
34.76 454.262939
34.78 451.168152
34.80 458.407745
34.82 458.060669
34.84 455.875
34.86 453.198944
34.88 447.262299
34.90 448.09967
34.92 453.315735
34.94 454.395508
34.96 448.531891
34.98 444.494202
35.00 445.706604
35.02 441.226654
35.04 447.324585
35.06 439.10202
35.08 445.142578
35.10 444.832794
35.12 436.933777
35.14 432.392853
35.16 435.440247
35.18 435.675323
35.20 433.058258
35.22 430.744659
35.24 436.610321
35.26 437.26886
35.28 431.685608
35.30 433.500122
35.32 428.702362
35.34 420.58078
35.36 415.828979
35.38 421.117706
35.40 425.974304
35.42 426.402222
35.44 426.439667
35.46 417.324249
35.48 418.316681
35.50 418.289368
35.52 416.47702
35.54 418.733978
35.56 412.961426
35.58 415.045197
35.60 416.409393
35.62 417.953735
35.64 413.39444
35.66 411.230682
35.68 407.181549
35.70 405.965729
35.72 406.892914
35.74 413.78537
35.76 415.245087
35.78 404.157684
35.80 402.819366
35.82 409.51181
35.84 401.230957
35.86 404.745972
35.88 402.737274
35.90 408.312164
35.92 398.98233
35.94 397.58551
35.96 398.930603
35.98 400.213562
36.00 393.497284
36.02 399.215942
36.04 391.642395
36.06 392.756378
36.08 396.427887
36.10 393.89328
36.12 389.657257
36.14 384.332184
36.16 385.221802
36.18 390.333771
36.20 388.327698
36.22 384.307831
36.24 381.85144
36.26 378.34082
36.28 376.462952
36.30 383.492981
36.32 381.458221
36.34 386.145447
36.36 378.816254
36.38 382.481812
36.40 387.673309
36.42 385.446228
36.44 381.862549
36.46 384.217743
36.48 378.310242
36.50 378.469666
36.52 382.707245
36.54 381.874908
36.56 377.379211
36.58 382.427643
36.60 373.049988
36.62 376.821136
36.64 377.157959
36.66 373.059357
36.68 377.133881
36.70 377.666443
36.72 379.763214
36.74 374.340515
36.76 372.465851
36.78 364.816711
36.80 361.035248
36.82 367.951447
36.84 367.443634
36.86 366.293701
36.88 365.867065
36.90 363.428375
36.92 366.04425
36.94 372.075806
36.96 371.71701
36.98 365.92923
37.00 369.069641
37.02 376.11438
37.04 369.636536
37.06 369.363525
37.08 367.717194
37.10 361.788666
37.12 361.875977
37.14 361.436646
37.16 360.633545
37.18 360.834564
37.20 360.987335
37.22 358.693634
37.24 361.361176
37.26 363.795013
37.28 368.840546
37.30 368.152283
37.32 365.81424
37.34 364.704498
37.36 359.025177
37.38 358.335114
37.40 359.90274
37.42 357.608887
37.44 361.764557
37.46 361.083374
37.48 358.187805
37.50 348.269073
37.52 351.411621
37.54 354.217957
37.56 352.5802
37.58 357.207153
37.60 353.487488
37.62 347.222809
37.64 349.618744
37.66 354.038727
37.68 350.75235
37.70 352.624603
37.72 357.865601
37.74 356.394867
37.76 355.147919
37.78 354.058624
37.80 357.457764
37.82 351.881317
37.84 355.97171
37.86 349.819702
37.88 351.463898
37.90 353.500214
37.92 349.560394
37.94 347.983704
37.96 346.403198
37.98 337.921143
38.00 343.478241
38.02 351.713409
38.04 346.858551
38.06 346.506989
38.08 348.398254
38.10 343.553406
38.12 345.000763
38.14 344.659241
38.16 344.681
38.18 348.938812
38.20 351.649231
38.22 348.821503
38.24 345.57016
38.26 349.081757
38.28 353.60498
38.30 349.274872
38.32 344.505707
38.34 345.122711
38.36 345.433441
38.38 337.283997
38.40 338.547485
38.42 339.567169
38.44 341.703827
38.46 340.730286
38.48 341.7966
38.50 348.351288
38.52 343.060333
38.54 342.677032
38.56 344.869415
38.58 342.19339
38.60 344.741394
38.62 347.143066
38.64 344.578064
38.66 344.908936
38.68 340.162781
38.70 338.16571
38.72 336.337036
38.74 333.028381
38.76 329.556915
38.78 334.99823
38.80 332.463867
38.82 326.975433
38.84 327.61496
38.86 327.504669
38.88 331.347076
38.90 336.719025
38.92 330.88324
38.94 333.145081
38.96 332.722382
38.98 323.672546
39.00 323.813965
39.02 324.221558
39.04 324.906311
39.06 328.779541
39.08 333.676636
39.10 332.931
39.12 326.773041
39.14 327.305481
39.16 326.123505
39.18 328.305206
39.20 330.474182
39.22 331.348328
39.24 332.87735
39.26 331.319397
39.28 331.372467
39.30 329.664459
39.32 329.735779
39.34 335.086121
39.36 332.15799
39.38 331.33725
39.40 333.584778
39.42 322.630096
39.44 319.63739
39.46 324.138458
39.48 327.636444
39.50 326.236145
39.52 327.858643
39.54 329.841675
39.56 325.902802
39.58 325.475098
39.60 324.142975
39.62 320.974854
39.64 317.979675
39.66 323.251221
39.68 322.223785
39.70 319.917664
39.72 317.029419
39.74 317.990967
39.76 315.702362
39.78 314.907532
39.80 316.980591
39.82 318.635712
39.84 318.818359
39.86 318.943024
39.88 321.925293
39.90 315.184814
39.92 317.44931
39.94 315.989197
39.96 312.045319
39.98 312.140533
40.00 315.170563
