!@!!GADDS PLOTSO FILE: Chi integration type
!@!!Title/SampleName: ML_MAPbX3_chem1
!@!!User: NREL
!@!!Site: NREL SERF C211; SN 2510
!@!!Frame: C:\frames\rbelisle\MLProject\081022_MLProject_000_004.gfrm
!@!!Wavelengths    1.54184   1.54056   1.54439
!@!!Frame angles: 2Theta: 28.000 Omega: 5.000 Phi: 0.000 Chi: 90.000
!@!!Integration range: 2Theta: 10.000 to 40.000  Gamma: -100.000 to -80.000
!@!!Integration method: bin normalized
!@!N
!@!SS
!@!M
!@!L 0.0 0.0 0.0 0.0
!@!XDegrees
!@!YCounts
10.00 147.193512
10.02 134.060867
10.04 134.657257
10.06 121.121689
10.08 125.855957
10.10 114.086739
10.12 134.389389
10.14 137.400436
10.16 140.195313
10.18 137.845673
10.20 127.10701
10.22 124.775658
10.24 121.1959
10.26 129.503708
10.28 139.750412
10.30 130.366669
10.32 129.482941
10.34 130.716705
10.36 126.468872
10.38 114.943352
10.40 123.481392
10.42 130.511124
10.44 129.740097
10.46 119.30661
10.48 122.844757
10.50 120.012466
10.52 128.26503
10.54 136.232193
10.56 144.512054
10.58 136.531708
10.60 136.421921
10.62 132.783157
10.64 129.234146
10.66 132.594894
10.68 137.626343
10.70 154.369339
10.72 148.146652
10.74 158.335602
10.76 143.096207
10.78 129.524063
10.80 135.738647
10.82 131.56282
10.84 138.552612
10.86 137.476608
10.88 145.170319
10.90 146.750565
10.92 136.182281
10.94 144.122177
10.96 152.844147
10.98 132.540466
11.00 135.610245
11.02 147.767242
11.04 137.6745
11.06 124.769318
11.08 139.401413
11.10 147.040939
11.12 139.37619
11.14 134.431076
11.16 138.182922
11.18 143.319397
11.20 124.619743
11.22 130.052994
11.24 126.168121
11.26 134.217361
11.28 147.643661
11.30 151.255066
11.32 146.106613
11.34 148.347473
11.36 143.284729
11.38 149.001099
11.40 147.537872
11.42 143.521423
11.44 139.302536
11.46 141.48085
11.48 138.227646
11.50 142.785751
11.52 158.424774
11.54 158.015869
11.56 143.045471
11.58 128.189606
11.60 130.179779
11.62 137.149017
11.64 146.644272
11.66 148.167847
11.68 146.549805
11.70 153.247818
11.72 147.290588
11.74 147.526291
11.76 136.239777
11.78 135.013107
11.80 138.772629
11.82 141.11348
11.84 145.548355
11.86 150.835632
11.88 157.288239
11.90 150.133865
11.92 161.691772
11.94 149.479172
11.96 138.459457
11.98 152.379333
12.00 156.787079
12.02 151.490952
12.04 153.397873
12.06 155.288422
12.08 160.346817
12.10 174.487778
12.12 162.390961
12.14 160.16452
12.16 162.151382
12.18 156.370026
12.20 160.436554
12.22 165.958221
12.24 176.058258
12.26 179.804092
12.28 183.11264
12.30 185.659119
12.32 172.862732
12.34 173.597137
12.36 177.14624
12.38 191.106644
12.40 190.773865
12.42 188.507477
12.44 183.796661
12.46 194.975677
12.48 187.289886
12.50 202.562271
12.52 206.041779
12.54 208.995178
12.56 192.207092
12.58 195.653809
12.60 194.540131
12.62 189.050552
12.64 192.302048
12.66 193.316772
12.68 189.901596
12.70 184.309402
12.72 177.120804
12.74 183.094818
12.76 181.737442
12.78 173.591629
12.80 192.541214
12.82 175.790771
12.84 163.45932
12.86 169.129135
12.88 165.171692
12.90 155.905548
12.92 170.379547
12.94 159.014618
12.96 159.062119
12.98 155.303284
13.00 161.123047
13.02 169.615906
13.04 169.743576
13.06 169.639923
13.08 162.618774
13.10 152.657516
13.12 160.542175
13.14 157.752258
13.16 172.222763
13.18 164.399246
13.20 164.765152
13.22 157.390228
13.24 157.731415
13.26 158.820923
13.28 155.977524
13.30 165.696686
13.32 168.337646
13.34 150.981842
13.36 166.311829
13.38 172.015747
13.40 159.317993
13.42 178.300125
13.44 183.007614
13.46 190.833069
13.48 181.099045
13.50 197.483597
13.52 198.175537
13.54 193.537277
13.56 178.197678
13.58 199.730042
13.60 195.052017
13.62 207.818085
13.64 220.301743
13.66 218.680496
13.68 229.714157
13.70 241.230484
13.72 229.374878
13.74 240.241974
13.76 270.094238
13.78 272.08667
13.80 294.825653
13.82 294.513031
13.84 299.442444
13.86 307.10202
13.88 349.844208
13.90 374.827972
13.92 394.370544
13.94 420.031036
13.96 437.630707
13.98 444.304321
14.00 488.278168
14.02 493.074524
14.04 527.823486
14.06 558.449463
14.08 587.554749
14.10 585.364624
14.12 604.884583
14.14 616.916748
14.16 627.671387
14.18 594.698364
14.20 607.6297
14.22 589.190857
14.24 555.856506
14.26 548.272827
14.28 516.424561
14.30 478.664398
14.32 419.409424
14.34 391.796814
14.36 358.572021
14.38 331.88446
14.40 305.672943
14.42 271.341522
14.44 231.358505
14.46 231.90596
14.48 223.463333
14.50 246.935455
14.52 237.532074
14.54 216.18663
14.56 197.04744
14.58 203.876404
14.60 198.086548
14.62 202.812881
14.64 198.513382
14.66 196.420975
14.68 192.384766
14.70 190.758667
14.72 196.380463
14.74 183.536285
14.76 167.249237
14.78 170.310074
14.80 181.241379
14.82 182.078415
14.84 179.913361
14.86 188.854126
14.88 180.914108
14.90 192.913406
14.92 170.633179
14.94 167.811935
14.96 174.901581
14.98 174.900085
15.00 181.235519
15.02 191.692093
15.04 179.032303
15.06 164.032593
15.08 177.627289
15.10 169.560867
15.12 164.622513
15.14 177.592194
15.16 180.600174
15.18 176.934906
15.20 173.166458
15.22 174.243454
15.24 174.949493
15.26 182.761978
15.28 182.706787
15.30 196.329895
15.32 175.640656
15.34 167.298782
15.36 175.870865
15.38 171.914505
15.40 200.754791
15.42 199.118011
15.44 190.500061
15.46 172.813751
15.48 172.039703
15.50 190.58551
15.52 195.046936
15.54 190.214417
15.56 182.12796
15.58 182.414429
15.60 183.23851
15.62 177.001648
15.64 173.683319
15.66 174.557251
15.68 179.379562
15.70 190.87561
15.72 188.473953
15.74 184.353882
15.76 177.732803
15.78 187.652908
15.80 184.261108
15.82 172.487061
15.84 165.039001
15.86 171.659714
15.88 183.589417
15.90 188.313187
15.92 184.238022
15.94 161.971924
15.96 170.607101
15.98 174.405609
16.00 183.82692
16.02 164.962158
16.04 166.857452
16.06 184.500046
16.08 198.433014
16.10 179.726791
16.12 188.059158
16.14 194.253662
16.16 182.588867
16.18 177.278214
16.20 187.805328
16.22 188.221085
16.24 195.649826
16.26 191.73175
16.28 193.617767
16.30 198.028748
16.32 188.574081
16.34 197.567291
16.36 188.414383
16.38 194.486847
16.40 184.510529
16.42 191.172668
16.44 194.053009
16.46 191.748123
16.48 180.625549
16.50 199.056931
16.52 199.901352
16.54 191.99791
16.56 196.494095
16.58 191.399017
16.60 188.049576
16.62 192.17482
16.64 204.146286
16.66 202.361435
16.68 193.241791
16.70 192.775787
16.72 199.387863
16.74 198.432678
16.76 194.533508
16.78 186.070251
16.80 197.884933
16.82 204.5401
16.84 192.320084
16.86 182.312805
16.88 202.671875
16.90 194.317642
16.92 180.428101
16.94 185.564331
16.96 188.602127
16.98 190.606842
17.00 190.992737
17.02 193.021622
17.04 195.677063
17.06 193.02037
17.08 192.973145
17.10 190.453979
17.12 193.393051
17.14 186.032608
17.16 197.00441
17.18 187.804657
17.20 205.863266
17.22 208.885605
17.24 204.675735
17.26 213.052368
17.28 213.446793
17.30 209.612091
17.32 206.051849
17.34 202.005493
17.36 204.288025
17.38 202.70459
17.40 204.71138
17.42 192.376358
17.44 199.881134
17.46 200.412415
17.48 204.69722
17.50 207.643814
17.52 207.136566
17.54 214.283478
17.56 205.771576
17.58 217.212921
17.60 214.384109
17.62 200.26796
17.64 196.070679
17.66 202.197006
17.68 206.53566
17.70 204.568848
17.72 203.97905
17.74 197.345078
17.76 216.057755
17.78 227.422592
17.80 210.984421
17.82 201.446838
17.84 203.909515
17.86 207.093536
17.88 222.164413
17.90 220.153915
17.92 226.052261
17.94 215.626465
17.96 198.277695
17.98 197.890747
18.00 212.282883
18.02 228.074036
18.04 212.083496
18.06 194.313766
18.08 201.944275
18.10 211.919983
18.12 208.358704
18.14 202.09938
18.16 205.358963
18.18 221.123489
18.20 214.018036
18.22 214.448898
18.24 215.202698
18.26 221.522171
18.28 212.58223
18.30 220.388626
18.32 216.818436
18.34 220.884277
18.36 218.824799
18.38 217.544189
18.40 231.332458
18.42 228.143723
18.44 214.633316
18.46 218.648865
18.48 218.824051
18.50 215.77652
18.52 218.637695
18.54 224.422714
18.56 212.831863
18.58 206.596222
18.60 214.594757
18.62 234.474365
18.64 234.771362
18.66 235.594147
18.68 227.774811
18.70 229.948669
18.72 231.197327
18.74 227.106766
18.76 237.493713
18.78 232.862549
18.80 223.480972
18.82 226.538422
18.84 223.628525
18.86 236.319275
18.88 242.647552
18.90 244.68576
18.92 248.72316
18.94 231.027603
18.96 233.414368
18.98 229.571091
19.00 226.62793
19.02 242.959091
19.04 235.121292
19.06 222.267471
19.08 236.539215
19.10 239.202118
19.12 230.080231
19.14 223.139435
19.16 237.993195
19.18 231.431259
19.20 221.34758
19.22 219.355957
19.24 220.80574
19.26 246.74292
19.28 234.668823
19.30 230.455658
19.32 237.366211
19.34 248.437088
19.36 242.393494
19.38 260.701904
19.40 250.481537
19.42 240.677322
19.44 236.135681
19.46 234.029678
19.48 240.788803
19.50 250.775024
19.52 251.294907
19.54 252.888321
19.56 236.321503
19.58 250.078812
19.60 255.482071
19.62 256.426147
19.64 248.697327
19.66 253.917892
19.68 239.682343
19.70 235.672134
19.72 246.793289
19.74 253.701874
19.76 252.785019
19.78 269.540222
19.80 259.311127
19.82 262.869995
19.84 259.978729
19.86 253.299988
19.88 266.984009
19.90 265.162872
19.92 268.902069
19.94 267.302032
19.96 256.452698
19.98 272.330994
20.00 274.106842
20.02 274.656189
20.04 268.851288
20.06 279.874176
20.08 270.578857
20.10 271.692902
20.12 279.740143
20.14 282.396362
20.16 293.237732
20.18 280.7883
20.20 267.980743
20.22 257.539642
20.24 280.413055
20.26 284.898224
20.28 278.031708
20.30 275.993591
20.32 284.247742
20.34 274.35025
20.36 274.296021
20.38 264.35025
20.40 279.793518
20.42 289.779968
20.44 279.329773
20.46 273.103973
20.48 267.569
20.50 277.1427
20.52 282.090851
20.54 274.854279
20.56 270.61618
20.58 275.017517
20.60 265.844666
20.62 269.705017
20.64 259.467102
20.66 289.834747
20.68 286.706512
20.70 283.735474
20.72 279.826202
20.74 278.3815
20.76 267.834351
20.78 290.663361
20.80 282.848633
20.82 278.154205
20.84 274.316437
20.86 299.068115
20.88 272.735474
20.90 264.483582
20.92 276.042511
20.94 275.468597
20.96 280.063599
20.98 285.958344
21.00 274.596405
21.02 283.949341
21.04 291.64798
21.06 278.190674
21.08 283.156433
21.10 296.907837
21.12 302.083923
21.14 299.100739
21.16 288.034241
21.18 273.020172
21.20 285.377594
21.22 286.064423
21.24 279.383179
21.26 288.969971
21.28 287.705688
21.30 272.801208
21.32 298.157654
21.34 290.753174
21.36 304.232574
21.38 292.72348
21.40 286.392731
21.42 272.226929
21.44 294.863342
21.46 309.871399
21.48 293.525421
21.50 287.200348
21.52 311.073242
21.54 312.619019
21.56 295.822845
21.58 299.686646
21.60 306.762024
21.62 308.580139
21.64 307.986084
21.66 304.012543
21.68 306.469025
21.70 290.996765
21.72 294.006042
21.74 306.008911
21.76 324.539581
21.78 313.105255
21.80 313.722351
21.82 315.795258
21.84 301.922852
21.86 309.88031
21.88 317.032227
21.90 294.807404
21.92 303.734924
21.94 313.838989
21.96 289.340057
21.98 308.051514
22.00 302.121674
22.02 302.148071
22.04 314.777405
22.06 322.991608
22.08 322.017487
22.10 303.099426
22.12 306.806946
22.14 299.127228
22.16 307.283905
22.18 305.150665
22.20 315.07962
22.22 321.72937
22.24 311.542877
22.26 318.475372
22.28 321.13913
22.30 315.580872
22.32 301.180511
22.34 310.1716
22.36 307.97821
22.38 326.044281
22.40 309.328247
22.42 318.385559
22.44 329.00415
22.46 325.596191
22.48 322.709717
22.50 314.876587
22.52 328.616699
22.54 321.768005
22.56 323.580505
22.58 318.303558
22.60 331.036835
22.62 338.501007
22.64 311.557983
22.66 303.294525
22.68 316.748657
22.70 324.903412
22.72 328.773041
22.74 331.715729
22.76 332.282227
22.78 332.741821
22.80 332.079529
22.82 327.809326
22.84 326.331818
22.86 337.926727
22.88 324.963287
22.90 335.322266
22.92 343.77301
22.94 339.76297
22.96 334.485626
22.98 321.751526
23.00 328.492371
23.02 323.344696
23.04 334.78125
23.06 334.784546
23.08 334.456207
23.10 324.774445
23.12 333.007843
23.14 337.672333
23.16 330.840851
23.18 336.614471
23.20 322.632843
23.22 331.364594
23.24 338.5224
23.26 328.788391
23.28 325.64682
23.30 340.52066
23.32 342.140533
23.34 341.069275
23.36 340.135956
23.38 330.109222
23.40 325.720551
23.42 327.212433
23.44 342.622803
23.46 353.796661
23.48 346.639404
23.50 342.447571
23.52 340.178619
23.54 351.45459
23.56 349.9729
23.58 347.418213
23.60 343.044983
23.62 330.995636
23.64 331.56723
23.66 342.708862
23.68 336.885803
23.70 334.188446
23.72 328.712708
23.74 339.194061
23.76 356.349182
23.78 348.756012
23.80 349.118805
23.82 337.978333
23.84 336.73526
23.86 332.065582
23.88 327.371582
23.90 337.346497
23.92 348.445251
23.94 342.810638
23.96 343.927979
23.98 329.262085
24.00 324.845764
24.02 327.547546
24.04 332.067169
24.06 350.494385
24.08 351.378601
24.10 355.450104
24.12 351.03894
24.14 358.458069
24.16 359.75116
24.18 337.862061
24.20 327.570618
24.22 341.363403
24.24 347.301331
24.26 351.844543
24.28 347.710968
24.30 342.678497
24.32 344.154114
24.34 359.554626
24.36 355.56778
24.38 362.118286
24.40 370.73996
24.42 362.560364
24.44 353.6698
24.46 352.829498
24.48 352.219147
24.50 354.414429
24.52 356.286713
24.54 352.461578
24.56 348.758484
24.58 341.601746
24.60 357.996429
24.62 350.792572
24.64 358.052795
24.66 373.271484
24.68 374.013855
24.70 375.987122
24.72 372.000275
24.74 360.96991
24.76 353.938812
24.78 347.487823
24.80 348.825104
24.82 344.409424
24.84 351.98291
24.86 355.157532
24.88 352.937317
24.90 361.418091
24.92 351.419769
24.94 366.027893
24.96 353.13446
24.98 352.542267
25.00 346.818268
25.02 341.416931
25.04 346.982819
25.06 341.516235
25.08 342.262878
25.10 345.840149
25.12 349.951752
25.14 354.966339
25.16 349.753815
25.18 363.563324
25.20 361.632996
25.22 348.3992
25.24 337.148346
25.26 338.645966
25.28 351.881805
25.30 353.670502
25.32 348.025879
25.34 337.273407
25.36 359.19342
25.38 349.101044
25.40 345.471497
25.42 338.420746
25.44 342.387024
25.46 347.178223
25.48 348.383881
25.50 360.75885
25.52 351.67157
25.54 354.173828
25.56 352.888947
25.58 350.009583
25.60 347.993591
25.62 372.959656
25.64 363.380524
25.66 361.917969
25.68 365.143158
25.70 362.737305
25.72 357.47818
25.74 346.358459
25.76 338.118835
25.78 344.908081
25.80 338.268005
25.82 353.806458
25.84 344.858856
25.86 331.043823
25.88 353.755585
25.90 340.085663
25.92 333.909241
25.94 327.859589
25.96 334.712311
25.98 350.929382
26.00 343.445313
26.02 338.060669
26.04 344.05658
26.06 341.105072
26.08 336.536346
26.10 342.765137
26.12 352.980316
26.14 357.182556
26.16 344.217529
26.18 350.477112
26.20 331.10199
26.22 332.930115
26.24 341.832092
26.26 336.205627
26.28 333.985779
26.30 339.806641
26.32 332.145294
26.34 348.846741
26.36 353.18988
26.38 335.199829
26.40 330.336792
26.42 326.092468
26.44 332.494873
26.46 339.845947
26.48 344.154114
26.50 352.341003
26.52 351.672028
26.54 351.540222
26.56 331.520752
26.58 339.83609
26.60 331.403107
26.62 342.851929
26.64 340.007996
26.66 335.027588
26.68 348.971649
26.70 348.819916
26.72 343.339905
26.74 341.081451
26.76 336.627106
26.78 343.202332
26.80 343.925415
26.82 346.568604
26.84 370.092987
26.86 359.565674
26.88 344.925049
26.90 333.018707
26.92 346.37915
26.94 341.033478
26.96 341.098755
26.98 344.505981
27.00 349.150909
27.02 343.048737
27.04 329.709717
27.06 330.580566
27.08 326.834503
27.10 326.037567
27.12 341.136566
27.14 347.986786
27.16 340.368378
27.18 335.776459
27.20 331.317535
27.22 333.519073
27.24 337.994171
27.26 340.53421
27.28 335.367767
27.30 337.120941
27.32 341.152008
27.34 340.951111
27.36 342.297974
27.38 332.624023
27.40 337.87677
27.42 330.840454
27.44 340.806061
27.46 333.687439
27.48 340.159241
27.50 343.116974
27.52 325.891846
27.54 328.143524
27.56 324.629486
27.58 338.81189
27.60 348.234924
27.62 336.740875
27.64 331.473663
27.66 332.225433
27.68 336.411865
27.70 343.078461
27.72 352.401459
27.74 343.634857
27.76 356.458069
27.78 358.704651
27.80 347.990448
27.82 342.34613
27.84 347.635437
27.86 358.831451
27.88 352.573181
27.90 353.827271
27.92 365.822296
27.94 365.134033
27.96 362.184326
27.98 366.900055
28.00 373.694672
28.02 373.776764
28.04 373.098511
28.06 381.430786
28.08 398.947784
28.10 389.427612
28.12 395.063263
28.14 401.900787
28.16 406.974823
28.18 413.227478
28.20 426.050201
28.22 428.923279
28.24 438.131592
28.26 444.123718
28.28 455.108978
28.30 466.343567
28.32 481.801331
28.34 501.726501
28.36 538.878601
28.38 553.307617
28.40 560.455994
28.42 570.72699
28.44 592.357849
28.46 607.94104
28.48 621.69397
28.50 672.791992
28.52 675.759766
28.54 682.586975
28.56 689.725464
28.58 698.558289
28.60 693.519531
28.62 664.883423
28.64 640.407776
28.66 632.77887
28.68 615.807556
28.70 584.870056
28.72 564.127502
28.74 553.780396
28.76 520.266357
28.78 490.090607
28.80 462.08847
28.82 446.100372
28.84 444.733826
28.86 428.830841
28.88 403.426361
28.90 414.360901
28.92 411.481506
28.94 380.399475
28.96 379.361542
28.98 381.135529
29.00 378.534363
29.02 364.80954
29.04 360.143524
29.06 350.24292
29.08 343.454163
29.10 347.833527
29.12 346.408875
29.14 337.889343
29.16 332.51355
29.18 341.738495
29.20 337.606995
29.22 331.104309
29.24 343.125183
29.26 345.19278
29.28 337.161438
29.30 333.443298
29.32 337.946991
29.34 347.040405
29.36 335.237
29.38 322.546936
29.40 337.63446
29.42 321.733032
29.44 317.754608
29.46 333.453674
29.48 318.224091
29.50 318.795959
29.52 317.180145
29.54 336.169128
29.56 328.191437
29.58 332.897583
29.60 327.618256
29.62 314.305542
29.64 326.456818
29.66 321.389526
29.68 316.714966
29.70 320.983826
29.72 322.968689
29.74 321.434937
29.76 311.913544
29.78 323.12796
29.80 329.530334
29.82 323.487183
29.84 326.373413
29.86 323.788544
29.88 325.880585
29.90 316.671051
29.92 323.275604
29.94 315.008881
29.96 305.630127
29.98 319.348877
30.00 343.731689
30.02 320.66864
30.04 308.065125
30.06 313.736206
30.08 313.268463
30.10 329.485901
30.12 335.626343
30.14 333.230499
30.16 324.655426
30.18 313.636047
30.20 321.840363
30.22 318.414001
30.24 320.411102
30.26 323.339905
30.28 314.298828
30.30 311.846527
30.32 319.573944
30.34 311.631439
30.36 315.634918
30.38 312.31131
30.40 300.297943
30.42 306.928467
30.44 323.178558
30.46 323.157562
30.48 330.614014
30.50 312.204926
30.52 308.405365
30.54 317.748138
30.56 311.339508
30.58 318.368683
30.60 321.173584
30.62 322.816498
30.64 317.417328
30.66 310.891327
30.68 316.742676
30.70 313.813995
30.72 313.128174
30.74 312.120728
30.76 305.026337
30.78 301.431427
30.80 301.604034
30.82 314.342957
30.84 307.333038
30.86 310.524139
30.88 318.583984
30.90 299.31723
30.92 294.263641
30.94 309.344635
30.96 319.88562
30.98 317.996399
31.00 307.384583
31.02 305.603851
31.04 306.679077
31.06 314.322052
31.08 322.192719
31.10 309.585693
31.12 309.910034
31.14 308.155579
31.16 324.689301
31.18 325.151093
31.20 311.20105
31.22 306.963196
31.24 306.910095
31.26 319.589783
31.28 317.470428
31.30 313.680481
31.32 319.01416
31.34 315.811066
31.36 310.304993
31.38 311.33551
31.40 313.971405
31.42 314.543243
31.44 308.795776
31.46 308.833069
31.48 318.252533
31.50 314.164459
31.52 317.392487
31.54 315.739197
31.56 324.866028
31.58 332.740143
31.60 334.770294
31.62 335.545807
31.64 336.45929
31.66 339.874847
31.68 343.124969
31.70 353.366241
31.72 349.847961
31.74 337.457977
31.76 344.24765
31.78 350.793396
31.80 354.778198
31.82 353.229584
31.84 353.55954
31.86 354.798401
31.88 364.319946
31.90 385.741516
31.92 404.752808
31.94 407.972839
31.96 418.865234
31.98 408.051453
32.00 406.935211
32.02 417.955322
32.04 414.121307
32.06 395.514008
32.08 388.540833
32.10 383.661285
32.12 380.672577
32.14 379.075165
32.16 382.510284
32.18 380.189697
32.20 367.068115
32.22 349.972961
32.24 344.241486
32.26 341.188324
32.28 337.816956
32.30 335.956055
32.32 343.138153
32.34 345.045898
32.36 340.737854
32.38 330.903839
32.40 324.699799
32.42 310.852112
32.44 312.91983
32.46 313.626953
32.48 314.339813
32.50 303.952179
32.52 295.164917
32.54 290.669281
32.56 286.404175
32.58 287.935211
32.60 300.183838
32.62 294.347748
32.64 295.337097
32.66 310.017517
32.68 295.574219
32.70 294.475952
32.72 285.805939
32.74 292.192444
32.76 308.932922
32.78 305.622711
32.80 294.859833
32.82 295.225494
32.84 280.781067
32.86 276.474792
32.88 287.659119
32.90 289.188446
32.92 280.951569
32.94 286.506378
32.96 287.993347
32.98 282.336548
33.00 279.893799
33.02 284.820648
33.04 285.646637
33.06 284.482056
33.08 293.387573
33.10 289.180023
33.12 274.896423
33.14 276.697754
33.16 276.316071
33.18 266.681213
33.20 261.204254
33.22 273.062775
33.24 276.085571
33.26 278.97348
33.28 284.863678
33.30 279.467865
33.32 273.657318
33.34 264.451324
33.36 259.582245
33.38 274.722046
33.40 281.524475
33.42 271.70343
33.44 274.848358
33.46 263.611725
33.48 276.870026
33.50 283.332733
33.52 283.405151
33.54 284.419342
33.56 274.202759
33.58 273.67392
33.60 274.035675
33.62 281.371979
33.64 272.218689
33.66 271.809784
33.68 270.536682
33.70 267.484924
33.72 274.63504
33.74 276.593414
33.76 272.342133
33.78 273.042786
33.80 273.219421
33.82 265.857941
33.84 254.782959
33.86 266.673767
33.88 261.051941
33.90 251.28334
33.92 260.398621
33.94 270.334625
33.96 258.916534
33.98 251.769745
34.00 257.684204
34.02 260.4021
34.04 253.440506
34.06 263.804077
34.08 270.371948
34.10 257.801208
34.12 266.520142
34.14 265.570251
34.16 260.435913
34.18 263.059326
34.20 272.199951
34.22 261.173279
34.24 253.201721
34.26 255.700531
34.28 265.91684
34.30 260.920166
34.32 258.643677
34.34 256.9328
34.36 251.687836
34.38 248.861115
34.40 257.144501
34.42 259.404999
34.44 257.586426
34.46 259.565979
34.48 259.290161
34.50 257.136597
34.52 263.799103
34.54 252.081802
34.56 256.906281
34.58 250.406387
34.60 256.912689
34.62 261.756622
34.64 258.54541
34.66 259.021271
34.68 255.291855
34.70 251.017715
34.72 250.031174
34.74 241.370422
34.76 242.77597
34.78 250.156845
34.80 246.572876
34.82 259.793854
34.84 258.911926
34.86 246.624008
34.88 257.108612
34.90 255.221207
34.92 254.703857
34.94 251.181198
34.96 251.274994
34.98 259.570129
35.00 260.66983
35.02 252.997711
35.04 255.84343
35.06 263.380066
35.08 253.579437
35.10 250.607605
35.12 256.049774
35.14 258.459564
35.16 256.644806
35.18 260.250244
35.20 250.320236
35.22 257.774384
35.24 251.048813
35.26 246.477386
35.28 246.813766
35.30 248.019745
35.32 250.139038
35.34 246.587723
35.36 242.707993
35.38 244.720673
35.40 244.570526
35.42 244.173294
35.44 241.785431
35.46 244.056854
35.48 237.142761
35.50 237.14357
35.52 241.046722
35.54 240.30571
35.56 227.973846
35.58 235.025848
35.60 244.692902
35.62 237.985291
35.64 236.735458
35.66 228.186905
35.68 238.361526
35.70 242.687805
35.72 242.385056
35.74 228.028366
35.76 234.268372
35.78 235.254471
35.80 237.417877
35.82 231.702866
35.84 234.338089
35.86 234.659378
35.88 221.824661
35.90 218.540878
35.92 223.656845
35.94 216.200317
35.96 224.273651
35.98 226.443604
36.00 222.525848
36.02 230.63208
36.04 235.118454
36.06 223.833221
36.08 226.379395
36.10 222.970703
36.12 225.086945
36.14 230.453247
36.16 217.649445
36.18 221.258072
36.20 220.436035
36.22 225.32959
36.24 223.151703
36.26 216.98732
36.28 217.49498
36.30 223.795547
36.32 224.489899
36.34 219.440094
36.36 213.525162
36.38 218.881363
36.40 224.067062
36.42 212.871796
36.44 206.097519
36.46 212.923706
36.48 208.687836
36.50 210.653168
36.52 224.52388
36.54 224.42067
36.56 217.462646
36.58 227.630951
36.60 226.822632
36.62 219.099686
36.64 209.644089
36.66 211.355087
36.68 208.234299
36.70 217.195709
36.72 216.748825
36.74 210.860947
36.76 219.845215
36.78 211.53952
36.80 216.080109
36.82 217.880478
36.84 216.316986
36.86 206.001984
36.88 205.495209
36.90 208.875061
36.92 200.363861
36.94 207.807358
36.96 199.199707
36.98 213.141251
37.00 207.378906
37.02 209.584976
37.04 211.283218
37.06 208.975433
37.08 207.704239
37.10 209.063995
37.12 205.614151
37.14 212.136475
37.16 207.407516
37.18 205.498123
37.20 205.458572
37.22 207.498291
37.24 207.977524
37.26 213.507111
37.28 217.946075
37.30 214.212051
37.32 209.66069
37.34 205.680679
37.36 188.837814
37.38 188.717346
37.40 198.318527
37.42 206.193436
37.44 199.72998
37.46 197.194992
37.48 213.161469
37.50 200.836136
37.52 193.000107
37.54 193.34285
37.56 200.772934
37.58 207.894653
37.60 207.702011
37.62 197.947113
37.64 195.07515
37.66 198.324692
37.68 192.302948
37.70 195.204102
37.72 200.123611
37.74 198.571503
37.76 198.753952
37.78 196.512436
37.80 193.857239
37.82 189.753555
37.84 195.362152
37.86 195.53746
37.88 185.569672
37.90 199.417068
37.92 201.912231
37.94 198.719437
37.96 198.242538
37.98 188.507233
38.00 193.151886
38.02 208.144684
38.04 201.359726
38.06 189.892746
38.08 193.551727
38.10 196.990189
38.12 192.382736
38.14 196.534134
38.16 198.333542
38.18 200.77124
38.20 189.183228
38.22 188.988724
38.24 185.150589
38.26 189.040009
38.28 186.213531
38.30 191.474594
38.32 193.03157
38.34 193.883835
38.36 193.076752
38.38 203.333405
38.40 195.128159
38.42 193.424927
38.44 198.958496
38.46 195.338364
38.48 204.987656
38.50 190.000504
38.52 185.790024
38.54 196.189697
38.56 193.744308
38.58 201.04451
38.60 190.348892
38.62 180.352234
38.64 191.783508
38.66 190.59169
38.68 186.064636
38.70 187.065475
38.72 190.086868
38.74 189.440552
38.76 200.378418
38.78 192.673431
38.80 185.746872
38.82 186.815506
38.84 198.521927
38.86 185.870728
38.88 189.405167
38.90 191.966705
38.92 185.153961
38.94 189.071167
38.96 186.048141
38.98 184.029236
39.00 196.774231
39.02 188.754181
39.04 177.264023
39.06 179.283722
39.08 181.612457
39.10 184.437012
39.12 192.953918
39.14 180.967239
39.16 179.490616
39.18 182.79715
39.20 175.249588
39.22 177.158569
39.24 182.782394
39.26 185.451599
39.28 185.600021
39.30 182.239426
39.32 186.639297
39.34 186.64209
39.36 183.082031
39.38 188.01564
39.40 188.857758
39.42 194.117126
39.44 188.244293
39.46 182.512131
39.48 185.703735
39.50 180.913635
39.52 192.871674
39.54 186.196701
39.56 185.57045
39.58 189.721924
39.60 179.501068
39.62 189.57222
39.64 188.49881
39.66 182.033981
39.68 177.575317
39.70 182.172546
39.72 187.82048
39.74 193.081314
39.76 184.647491
39.78 181.602417
39.80 175.845032
39.82 175.756607
39.84 178.563614
39.86 179.089142
39.88 187.546448
39.90 190.582291
39.92 183.755951
39.94 179.858536
39.96 170.766159
39.98 170.630219
40.00 181.300964
