!@!!GADDS PLOTSO FILE: Chi integration type
!@!!Title/SampleName: ML_MAPbX3
!@!!User: NREL
!@!!Site: NREL SERF C211; SN 2510
!@!!Frame: 081022_MLProject_000_016.gfrm
!@!!Wavelengths    1.54184   1.54056   1.54439
!@!!Frame angles: 2Theta: 28.000 Omega: 5.000 Phi: 0.000 Chi: 90.000
!@!!Integration range: 2Theta: 10.000 to 40.000  Gamma: -135.000 to -45.000
!@!!Integration method: bin normalized
!@!N
!@!SS
!@!M
!@!L 0.0 0.0 0.0 0.0
!@!XDegrees
!@!YCounts
10.00 175.177811
10.02 183.083313
10.04 187.752716
10.06 183.853043
10.08 175.090439
10.10 186.025375
10.12 183.850235
10.14 187.832764
10.16 186.727844
10.18 183.391953
10.20 188.382813
10.22 185.643814
10.24 181.34256
10.26 188.149124
10.28 191.770355
10.30 184.192123
10.32 182.017654
10.34 189.721771
10.36 195.639557
10.38 183.76767
10.40 186.42012
10.42 189.716644
10.44 190.219559
10.46 196.61792
10.48 191.591797
10.50 197.615692
10.52 194.161499
10.54 187.264908
10.56 191.082306
10.58 195.36496
10.60 193.082108
10.62 199.77121
10.64 206.990128
10.66 195.682983
10.68 201.645767
10.70 192.481812
10.72 196.6362
10.74 202.296417
10.76 201.18013
10.78 198.564301
10.80 196.697174
10.82 203.740158
10.84 198.979523
10.86 201.624893
10.88 212.363586
10.90 207.655869
10.92 211.150787
10.94 210.298447
10.96 206.111435
10.98 216.379883
11.00 216.191696
11.02 216.166306
11.04 212.472153
11.06 211.355911
11.08 206.931534
11.10 219.300018
11.12 212.390182
11.14 212.237091
11.16 212.629913
11.18 221.284851
11.20 228.744553
11.22 218.372635
11.24 214.444595
11.26 217.376938
11.28 215.644241
11.30 207.883759
11.32 215.713913
11.34 214.634598
11.36 228.960312
11.38 226.525467
11.40 227.528183
11.42 222.546036
11.44 223.067657
11.46 218.339035
11.48 221.290527
11.50 228.706696
11.52 226.898499
11.54 223.848358
11.56 225.718079
11.58 223.731995
11.60 225.358627
11.62 228.845779
11.64 232.734634
11.66 224.717758
11.68 232.329788
11.70 232.050385
11.72 237.230942
11.74 235.57753
11.76 233.958344
11.78 227.790298
11.80 234.442261
11.82 245.789108
11.84 233.58313
11.86 228.703369
11.88 232.311188
11.90 240.07048
11.92 251.744003
11.94 243.920334
11.96 238.374039
11.98 244.086945
12.00 246.583008
12.02 242.747604
12.04 241.512131
12.06 254.52124
12.08 256.683044
12.10 254.653641
12.12 256.771362
12.14 257.481964
12.16 247.494125
12.18 252.065277
12.20 257.369171
12.22 259.575836
12.24 264.986237
12.26 265.441895
12.28 263.231171
12.30 259.845947
12.32 258.371002
12.34 265.326935
12.36 266.857971
12.38 263.471588
12.40 272.429565
12.42 283.664368
12.44 290.678864
12.46 287.753052
12.48 290.888519
12.50 299.319183
12.52 300.572815
12.54 297.019501
12.56 297.641327
12.58 300.774445
12.60 301.00061
12.62 296.79126
12.64 301.559814
12.66 300.364014
12.68 295.430573
12.70 288.970306
12.72 279.8237
12.74 284.790283
12.76 289.433289
12.78 289.173096
12.80 275.721405
12.82 267.547089
12.84 275.632568
12.86 274.470673
12.88 272.080261
12.90 277.793671
12.92 270.498291
12.94 262.114441
12.96 255.834915
12.98 254.224854
13.00 261.533295
13.02 264.206451
13.04 267.64917
13.06 267.02002
13.08 265.743622
13.10 268.25119
13.12 272.492371
13.14 263.805969
13.16 261.082458
13.18 261.782379
13.20 260.024109
13.22 264.186615
13.24 270.606537
13.26 265.203827
13.28 263.397797
13.30 267.046295
13.32 274.04306
13.34 274.927979
13.36 276.572418
13.38 269.693634
13.40 268.919434
13.42 271.210938
13.44 278.255219
13.46 283.992218
13.48 293.589508
13.50 289.661316
13.52 287.197632
13.54 295.348602
13.56 299.560944
13.58 309.429169
13.60 317.910278
13.62 322.656525
13.64 319.613617
13.66 320.740051
13.68 327.468903
13.70 341.493622
13.72 343.329651
13.74 350.045319
13.76 359.222961
13.78 370.483856
13.80 382.105927
13.82 385.343719
13.84 397.744049
13.86 414.358582
13.88 428.39502
13.90 452.419342
13.92 461.005585
13.94 474.468567
13.96 481.359467
13.98 490.263123
14.00 514.65918
14.02 537.692749
14.04 531.058228
14.06 528.237427
14.08 531.268982
14.10 531.329224
14.12 526.346497
14.14 524.930603
14.16 518.453979
14.18 507.618164
14.20 488.095337
14.22 468.268524
14.24 454.245026
14.26 418.376373
14.28 392.576874
14.30 375.571625
14.32 375.733856
14.34 354.721283
14.36 357.686554
14.38 342.847595
14.40 337.633575
14.42 333.565826
14.44 323.022766
14.46 312.864899
14.48 299.382385
14.50 298.606201
14.52 311.358368
14.54 312.186859
14.56 303.954742
14.58 300.803741
14.60 297.680969
14.62 291.651764
14.64 296.697479
14.66 300.356628
14.68 293.78479
14.70 303.108826
14.72 307.708282
14.74 303.195374
14.76 300.067169
14.78 289.885345
14.80 288.667603
14.82 292.094696
14.84 297.865753
14.86 306.287323
14.88 296.977325
14.90 292.001434
14.92 292.855896
14.94 296.813293
14.96 303.610168
14.98 303.075073
15.00 305.387543
15.02 301.285095
15.04 300.850677
15.06 303.59671
15.08 307.126923
15.10 307.016876
15.12 316.645233
15.14 317.695923
15.16 325.083466
15.18 325.615662
15.20 331.453644
15.22 324.838898
15.24 333.919495
15.26 334.172638
15.28 333.816956
15.30 341.640869
15.32 344.984039
15.34 338.93811
15.36 345.26767
15.38 348.546936
15.40 342.833191
15.42 339.574677
15.44 341.520752
15.46 335.799835
15.48 333.884186
15.50 328.268524
15.52 331.632385
15.54 326.649261
15.56 327.550781
15.58 324.957245
15.60 316.070831
15.62 329.401703
15.64 321.585663
15.66 321.635986
15.68 307.752258
15.70 308.007202
15.72 311.910675
15.74 312.025635
15.76 305.432922
15.78 308.592651
15.80 309.254425
15.82 306.154694
15.84 308.549225
15.86 303.93576
15.88 300.600189
15.90 309.361176
15.92 300.843811
15.94 300.998138
15.96 301.962067
15.98 308.412048
16.00 312.014496
16.02 307.484619
16.04 305.057953
16.06 307.717743
16.08 308.424133
16.10 312.063171
16.12 310.108002
16.14 305.590851
16.16 312.821594
16.18 318.141479
16.20 320.842285
16.22 312.201416
16.24 302.916656
16.26 303.164001
16.28 306.297211
16.30 311.283203
16.32 320.535217
16.34 313.071045
16.36 308.533508
16.38 312.75769
16.40 321.703308
16.42 315.497864
16.44 312.461456
16.46 306.920471
16.48 308.749939
16.50 312.56485
16.52 319.133972
16.54 313.00766
16.56 311.774994
16.58 312.582306
16.60 311.429352
16.62 307.527893
16.64 311.896423
16.66 321.093262
16.68 324.958374
16.70 327.07254
16.72 325.66507
16.74 324.224548
16.76 314.037842
16.78 319.347931
16.80 322.270264
16.82 317.497162
16.84 311.094666
16.86 321.666046
16.88 325.406067
16.90 323.072784
16.92 319.699341
16.94 313.406982
16.96 320.003326
16.98 327.981781
17.00 335.380615
17.02 329.092255
17.04 329.148224
17.06 330.76535
17.08 328.660828
17.10 323.275635
17.12 326.415924
17.14 327.875519
17.16 330.0737
17.18 332.643127
17.20 325.509705
17.22 333.480621
17.24 330.326447
17.26 324.294739
17.28 320.214447
17.30 326.871643
17.32 328.865906
17.34 334.65329
17.36 338.477783
17.38 331.437622
17.40 324.920593
17.42 336.415222
17.44 336.222046
17.46 336.914093
17.48 336.625153
17.50 348.572357
17.52 345.476349
17.54 338.276306
17.56 340.77301
17.58 338.430786
17.60 337.358093
17.62 340.694092
17.64 340.877625
17.66 343.860077
17.68 348.646301
17.70 350.005798
17.72 353.452332
17.74 349.350433
17.76 342.859619
17.78 338.883087
17.80 337.794495
17.82 346.775116
17.84 347.349884
17.86 349.494904
17.88 348.970886
17.90 346.816132
17.92 352.595886
17.94 355.514465
17.96 347.234528
17.98 351.319092
18.00 357.604156
18.02 363.362244
18.04 355.000275
18.06 361.415405
18.08 357.653107
18.10 355.279999
18.12 358.641083
18.14 360.19397
18.16 360.457947
18.18 365.137115
18.20 365.183685
18.22 366.534821
18.24 358.452179
18.26 354.365906
18.28 362.29068
18.30 361.884216
18.32 369.347931
18.34 369.584869
18.36 360.059814
18.38 373.887939
18.40 379.435242
18.42 364.321014
18.44 364.567261
18.46 368.666718
18.48 367.699005
18.50 365.821625
18.52 367.157959
18.54 368.12207
18.56 370.482605
18.58 365.937561
18.60 365.117523
18.62 368.237396
18.64 381.89505
18.66 378.541718
18.68 377.76886
18.70 380.581696
18.72 386.24585
18.74 386.35553
18.76 378.270538
18.78 378.614441
18.80 379.672211
18.82 373.656311
18.84 377.59845
18.86 387.170563
18.88 380.074554
18.90 377.847443
18.92 390.794952
18.94 389.280792
18.96 379.878937
18.98 391.012085
19.00 396.410889
19.02 392.376709
19.04 388.705841
19.06 383.692474
19.08 388.258545
19.10 394.486359
19.12 389.938263
19.14 395.373962
19.16 399.994965
19.18 394.344177
19.20 400.80835
19.22 401.455536
19.24 396.831024
19.26 403.796967
19.28 409.622437
19.30 404.711456
19.32 402.309387
19.34 395.269135
19.36 394.352722
19.38 400.696869
19.40 403.56662
19.42 403.750427
19.44 409.873047
19.46 414.104034
19.48 416.83139
19.50 421.335297
19.52 416.018646
19.54 414.632416
19.56 412.669373
19.58 418.561218
19.60 413.624969
19.62 410.045197
19.64 422.840332
19.66 428.600037
19.68 423.173279
19.70 426.881226
19.72 431.996643
19.74 428.391724
19.76 422.631989
19.78 427.112793
19.80 430.677277
19.82 433.265076
19.84 433.450409
19.86 436.856262
19.88 438.290405
19.90 436.058075
19.92 436.414795
19.94 439.431488
19.96 455.313599
19.98 447.62973
20.00 440.673706
20.02 445.469025
20.04 443.99173
20.06 440.940796
20.08 444.344513
20.10 440.753571
20.12 440.683563
20.14 439.907684
20.16 435.998138
20.18 438.221008
20.20 448.395782
20.22 452.203583
20.24 445.232544
20.26 438.99408
20.28 437.665253
20.30 446.249756
20.32 449.265991
20.34 454.62204
20.36 452.370392
20.38 448.88327
20.40 448.126373
20.42 452.129974
20.44 442.194214
20.46 447.413269
20.48 449.736176
20.50 452.920349
20.52 457.446625
20.54 457.772552
20.56 458.630249
20.58 455.87738
20.60 456.803589
20.62 445.399139
20.64 452.570862
20.66 457.317078
20.68 459.74527
20.70 459.543671
20.72 456.327362
20.74 454.470154
20.76 460.735962
20.78 464.220276
20.80 468.495697
20.82 470.960663
20.84 471.546875
20.86 461.191589
20.88 469.424805
20.90 468.423523
20.92 462.77951
20.94 461.599579
20.96 471.838684
20.98 476.722687
21.00 480.992706
21.02 482.784332
21.04 478.336121
21.06 477.341309
21.08 476.054718
21.10 479.801422
21.12 480.210693
21.14 483.133728
21.16 480.753204
21.18 472.79895
21.20 473.817108
21.22 483.028137
21.24 480.331268
21.26 489.194916
21.28 487.739349
21.30 487.527039
21.32 491.911194
21.34 495.328949
21.36 498.357788
21.38 499.103699
21.40 499.839539
21.42 492.991516
21.44 491.547485
21.46 488.130219
21.48 499.070465
21.50 504.102417
21.52 495.623138
21.54 496.605438
21.56 502.993866
21.58 508.556915
21.60 502.516968
21.62 502.143829
21.64 505.192963
21.66 508.384033
21.68 511.132477
21.70 511.761292
21.72 516.082947
21.74 518.766479
21.76 512.294312
21.78 511.533936
21.80 518.563599
21.82 523.737183
21.84 508.544678
21.86 512.511169
21.88 523.955505
21.90 519.425964
21.92 511.345825
21.94 512.173401
21.96 526.019592
21.98 532.14856
22.00 520.771362
22.02 520.207397
22.04 527.680359
22.06 516.818542
22.08 516.799072
22.10 512.431763
22.12 509.325928
22.14 520.476196
22.16 521.610291
22.18 519.382324
22.20 527.760071
22.22 523.422791
22.24 526.646545
22.26 528.919617
22.28 521.900696
22.30 511.318878
22.32 526.586487
22.34 537.278564
22.36 529.96759
22.38 528.432007
22.40 527.185547
22.42 526.176025
22.44 527.221863
22.46 535.700073
22.48 541.469482
22.50 535.43042
22.52 529.91864
22.54 529.362366
22.56 537.01593
22.58 545.636353
22.60 543.062927
22.62 538.936279
22.64 534.455627
22.66 532.569763
22.68 540.311951
22.70 534.710205
22.72 536.672363
22.74 549.185425
22.76 548.36084
22.78 542.855957
22.80 536.124146
22.82 549.360168
22.84 553.359375
22.86 550.639648
22.88 549.50769
22.90 553.646057
22.92 550.715454
22.94 546.094543
22.96 551.904175
22.98 553.519226
23.00 548.082092
23.02 557.235535
23.04 558.52478
23.06 539.3797
23.08 535.606445
23.10 543.517944
23.12 546.216553
23.14 548.757385
23.16 548.198792
23.18 555.998413
23.20 557.560913
23.22 559.058716
23.24 560.12854
23.26 559.756714
23.28 558.411865
23.30 552.533386
23.32 555.973999
23.34 557.925049
23.36 555.150513
23.38 550.090759
23.40 552.61731
23.42 559.253418
23.44 557.634583
23.46 558.523926
23.48 561.539978
23.50 567.831421
23.52 579.611572
23.54 580.434631
23.56 562.719604
23.58 567.106567
23.60 570.984802
23.62 563.930359
23.64 560.111816
23.66 564.209595
23.68 570.908203
23.70 559.887573
23.72 561.407654
23.74 568.913025
23.76 556.307983
23.78 560.628174
23.80 562.497986
23.82 560.558228
23.84 554.232788
23.86 562.559326
23.88 569.475342
23.90 573.457031
23.92 572.424866
23.94 570.143066
23.96 564.147461
23.98 568.769165
24.00 575.100159
24.02 571.029236
24.04 579.052124
24.06 574.068909
24.08 566.847534
24.10 567.850464
24.12 561.568909
24.14 569.142334
24.16 570.643311
24.18 571.868408
24.20 568.665283
24.22 569.904236
24.24 570.996887
24.26 578.389343
24.28 572.631226
24.30 565.661926
24.32 573.529175
24.34 576.831055
24.36 579.154968
24.38 580.310852
24.40 580.949219
24.42 583.848267
24.44 583.402954
24.46 576.297302
24.48 577.987183
24.50 581.069824
24.52 580.470764
24.54 585.262878
24.56 578.529785
24.58 578.957458
24.60 575.545288
24.62 580.682373
24.64 581.287964
24.66 581.47467
24.68 587.129517
24.70 582.536438
24.72 575.037354
24.74 584.130066
24.76 576.735474
24.78 573.686218
24.80 581.842102
24.82 581.877441
24.84 589.852783
24.86 587.072083
24.88 577.935059
24.90 573.924316
24.92 576.354492
24.94 580.818115
24.96 581.486267
24.98 581.037842
25.00 588.104431
25.02 585.206421
25.04 568.614502
25.06 565.25531
25.08 580.391907
25.10 592.994202
25.12 586.516418
25.14 585.910645
25.16 583.757446
25.18 581.689453
25.20 586.286194
25.22 581.618042
25.24 578.319031
25.26 583.680481
25.28 586.503052
25.30 581.219116
25.32 588.666321
25.34 581.728699
25.36 584.733887
25.38 585.980469
25.40 589.27948
25.42 586.638245
25.44 578.76355
25.46 584.826233
25.48 580.704407
25.50 585.465393
25.52 586.045837
25.54 581.650879
25.56 573.857422
25.58 585.840393
25.60 585.446045
25.62 577.802246
25.64 577.389832
25.66 570.004578
25.68 582.166077
25.70 582.092407
25.72 575.251099
25.74 580.175171
25.76 578.483093
25.78 577.876099
25.80 580.512939
25.82 581.038879
25.84 578.153198
25.86 580.052063
25.88 577.940918
25.90 583.56897
25.92 585.291626
25.94 579.092468
25.96 575.52771
25.98 581.827515
26.00 583.552002
26.02 580.885559
26.04 580.637268
26.06 579.605408
26.08 586.652161
26.10 586.224976
26.12 591.287781
26.14 589.441833
26.16 583.677612
26.18 581.587036
26.20 577.628784
26.22 580.027771
26.24 578.452393
26.26 585.791016
26.28 579.088196
26.30 589.23114
26.32 588.15387
26.34 576.05658
26.36 569.012146
26.38 579.496643
26.40 578.007996
26.42 577.672424
26.44 585.742371
26.46 577.864441
26.48 571.714966
26.50 576.513733
26.52 576.408936
26.54 577.511963
26.56 580.660339
26.58 570.795166
26.60 577.182251
26.62 573.117554
26.64 572.386902
26.66 572.966309
26.68 570.290771
26.70 570.675354
26.72 573.780945
26.74 577.648682
26.76 585.025818
26.78 585.403015
26.80 582.775269
26.82 578.757996
26.84 581.91449
26.86 587.081909
26.88 575.010498
26.90 575.383667
26.92 575.821594
26.94 571.667114
26.96 570.030518
26.98 577.828247
27.00 580.622437
27.02 575.238647
27.04 572.434021
27.06 565.979553
27.08 569.931702
27.10 579.583191
27.12 583.634827
27.14 575.986084
27.16 566.705505
27.18 563.618652
27.20 572.138184
27.22 573.787354
27.24 566.733887
27.26 565.062561
27.28 569.883301
27.30 572.623535
27.32 573.682495
27.34 568.173523
27.36 566.099365
27.38 565.328003
27.40 567.68396
27.42 576.219421
27.44 575.784058
27.46 573.194641
27.48 573.379028
27.50 577.435242
27.52 584.633179
27.54 579.129944
27.56 573.191589
27.58 574.426086
27.60 575.644287
27.62 569.442505
27.64 570.910828
27.66 570.683472
27.68 568.397583
27.70 578.099304
27.72 583.149841
27.74 585.359924
27.76 584.300171
27.78 584.136108
27.80 581.837769
27.82 580.953125
27.84 587.603882
27.86 584.544739
27.88 578.851868
27.90 587.833618
27.92 598.40918
27.94 599.466736
27.96 596.640076
27.98 602.498962
28.00 604.351074
28.02 603.573364
28.04 608.023254
28.06 621.333496
28.08 621.622742
28.10 624.043945
28.12 631.283752
28.14 639.626038
28.16 643.247498
28.18 659.587341
28.20 677.503662
28.22 682.600342
28.24 682.707581
28.26 695.029053
28.28 705.382202
28.30 720.398438
28.32 732.695313
28.34 754.778564
28.36 760.329041
28.38 769.624573
28.40 773.013855
28.42 767.780151
28.44 769.179321
28.46 774.398376
28.48 773.157959
28.50 766.711914
28.52 757.850708
28.54 753.742004
28.56 743.534973
28.58 724.925415
28.60 721.307373
28.62 708.297546
28.64 691.804749
28.66 679.828735
28.68 651.55304
28.70 638.038757
28.72 639.32666
28.74 629.830933
28.76 625.822205
28.78 616.923279
28.80 608.070984
28.82 595.544312
28.84 595.939453
28.86 589.844299
28.88 576.218506
28.90 575.738464
28.92 582.670349
28.94 582.768555
28.96 578.10907
28.98 572.504456
29.00 569.077759
29.02 567.845337
29.04 566.75293
29.06 564.195251
29.08 569.02124
29.10 562.953369
29.12 553.373108
29.14 551.979431
29.16 562.635193
29.18 550.626465
29.20 549.046021
29.22 555.065857
29.24 563.184387
29.26 561.944092
29.28 561.080261
29.30 556.692505
29.32 550.813782
29.34 549.141907
29.36 558.922119
29.38 563.640808
29.40 556.637146
29.42 550.027527
29.44 550.790161
29.46 548.883301
29.48 549.239136
29.50 548.818604
29.52 554.8302
29.54 549.417297
29.56 548.618225
29.58 550.467773
29.60 549.542175
29.62 553.160828
29.64 556.271912
29.66 546.935913
29.68 547.523743
29.70 544.430542
29.72 548.091431
29.74 542.812744
29.76 536.514954
29.78 544.828186
29.80 550.520752
29.82 539.779968
29.84 540.610718
29.86 550.077332
29.88 548.393738
29.90 540.534424
29.92 537.279602
29.94 532.992432
29.96 527.713928
29.98 536.929321
30.00 542.337402
30.02 535.995056
30.04 532.105347
30.06 526.417603
30.08 521.92334
30.10 535.623291
30.12 538.29126
30.14 535.125549
30.16 534.9375
30.18 531.32666
30.20 530.068542
30.22 530.177368
30.24 527.645264
30.26 530.718567
30.28 530.631897
30.30 530.12793
30.32 531.709106
30.34 532.654236
30.36 529.029968
30.38 529.099731
30.40 533.036804
30.42 536.772827
30.44 525.934387
30.46 524.790527
30.48 530.821167
30.50 534.702148
30.52 535.407104
30.54 535.650879
30.56 531.511353
30.58 525.011963
30.60 527.787354
30.62 526.489746
30.64 524.180786
30.66 524.150818
30.68 522.937805
30.70 519.786804
30.72 519.994446
30.74 525.593079
30.76 530.767822
30.78 524.20813
30.80 518.683411
30.82 528.576477
30.84 528.15918
30.86 515.981689
30.88 522.481018
30.90 519.478821
30.92 531.639771
30.94 531.32428
30.96 531.241882
30.98 531.515625
31.00 525.239807
31.02 521.340271
31.04 526.371643
31.06 532.621155
31.08 529.637268
31.10 535.027466
31.12 537.706482
31.14 537.186584
31.16 535.861877
31.18 534.371277
31.20 530.806641
31.22 529.98407
31.24 538.118958
31.26 534.787109
31.28 534.024048
31.30 533.019531
31.32 528.965027
31.34 530.355225
31.36 543.253906
31.38 542.077515
31.40 539.828674
31.42 534.935852
31.44 535.562866
31.46 522.814087
31.48 525.160828
31.50 534.602234
31.52 543.225952
31.54 534.367554
31.56 543.141357
31.58 549.678467
31.60 543.544067
31.62 553.513794
31.64 559.074036
31.66 558.844727
31.68 561.250854
31.70 559.084717
31.72 566.219116
31.74 568.538757
31.76 567.9375
31.78 564.322327
31.80 567.147766
31.82 577.557373
31.84 573.224854
31.86 579.462219
31.88 582.187683
31.90 588.338867
31.92 587.757324
31.94 576.558472
31.96 573.157776
31.98 575.996338
32.00 574.835083
32.02 568.358459
32.04 563.738342
32.06 552.746582
32.08 550.147095
32.10 547.841675
32.12 551.233765
32.14 536.075989
32.16 534.335754
32.18 538.579407
32.20 541.028381
32.22 536.11322
32.24 525.251465
32.26 522.455933
32.28 521.999329
32.30 515.096802
32.32 511.2995
32.34 500.909607
32.36 500.977417
32.38 500.115265
32.40 501.062469
32.42 492.668762
32.44 488.482239
32.46 480.857117
32.48 478.078552
32.50 483.646729
32.52 485.608398
32.54 482.214966
32.56 484.36734
32.58 484.578857
32.60 481.421814
32.62 482.814667
32.64 485.322876
32.66 482.807098
32.68 479.982056
32.70 477.867859
32.72 477.189575
32.74 476.943634
32.76 469.705353
32.78 471.750732
32.80 475.677887
32.82 469.255707
32.84 478.035858
32.86 476.94516
32.88 475.411499
32.90 471.407745
32.92 475.554199
32.94 473.697723
32.96 468.286804
32.98 464.902435
33.00 475.428497
33.02 477.755127
33.04 469.414154
33.06 466.202789
33.08 465.680511
33.10 465.012726
33.12 468.746155
33.14 464.476013
33.16 456.321747
33.18 459.952454
33.20 458.736237
33.22 463.452972
33.24 463.07486
33.26 462.150787
33.28 462.22403
33.30 463.880127
33.32 453.158478
33.34 452.682007
33.36 453.444244
33.38 459.833435
33.40 453.707489
33.42 449.528687
33.44 453.999512
33.46 452.673065
33.48 453.575836
33.50 451.25882
33.52 449.009949
33.54 449.212799
33.56 455.842682
33.58 456.62558
33.60 464.384521
33.62 456.599579
33.64 448.602142
33.66 440.302582
33.68 440.635071
33.70 444.611847
33.72 446.869781
33.74 441.199402
33.76 445.575623
33.78 448.541473
33.80 444.316315
33.82 450.481445
33.84 451.716583
33.86 439.417877
33.88 439.057037
33.90 441.729279
33.92 440.500763
33.94 436.715027
33.96 437.220703
33.98 437.621033
34.00 430.822968
34.02 430.346252
34.04 437.121643
34.06 437.172791
34.08 446.160614
34.10 445.167725
34.12 435.084869
34.14 441.133087
34.16 449.045349
34.18 440.836548
34.20 443.7341
34.22 437.191315
34.24 431.283661
34.26 432.501068
34.28 433.82016
34.30 430.285919
34.32 433.610443
34.34 435.164246
34.36 437.377899
34.38 436.632416
34.40 433.513123
34.42 434.91156
34.44 429.666687
34.46 430.78363
34.48 437.837372
34.50 429.781433
34.52 431.852509
34.54 432.476105
34.56 432.42923
34.58 427.400421
34.60 423.450348
34.62 427.357452
34.64 429.598755
34.66 432.490387
34.68 430.918854
34.70 442.633514
34.72 445.995117
34.74 441.145905
34.76 435.069275
34.78 436.165436
34.80 434.550568
34.82 433.925568
34.84 438.305573
34.86 435.496674
34.88 433.356354
34.90 433.439697
34.92 439.75647
34.94 433.275024
34.96 435.255524
34.98 440.244843
35.00 442.306702
35.02 441.170258
35.04 439.945953
35.06 428.434387
35.08 427.609406
35.10 428.065979
35.12 429.136475
35.14 429.729614
35.16 429.692444
35.18 424.552795
35.20 427.261932
35.22 425.89328
35.24 422.393921
35.26 419.255646
35.28 411.522125
35.30 409.407898
35.32 413.214935
35.34 415.616028
35.36 410.773346
35.38 408.143463
35.40 415.788025
35.42 411.039032
35.44 402.695435
35.46 400.618774
35.48 399.991608
35.50 404.148376
35.52 404.438568
35.54 402.485504
35.56 401.960541
35.58 402.372803
35.60 404.499603
35.62 395.078918
35.64 396.285034
35.66 394.890076
35.68 395.689941
35.70 392.777344
35.72 386.151337
35.74 391.310486
35.76 397.600372
35.78 399.121613
35.80 400.586121
35.82 397.490234
35.84 396.765503
35.86 387.112183
35.88 388.3302
35.90 383.803223
35.92 377.490265
35.94 379.997498
35.96 378.561554
35.98 379.563293
36.00 376.941437
36.02 383.460388
36.04 386.972626
36.06 381.563599
36.08 382.749054
36.10 381.965759
36.12 382.499939
36.14 383.928497
36.16 373.687347
36.18 375.04895
36.20 378.111481
36.22 380.180573
36.24 375.666687
36.26 373.395966
36.28 372.186615
36.30 370.508759
36.32 369.450409
36.34 377.184265
36.36 374.44577
36.38 369.663757
36.40 369.395111
36.42 375.131439
36.44 368.471039
36.46 369.650482
36.48 374.162903
36.50 369.713348
36.52 373.708801
36.54 370.164124
36.56 369.047302
36.58 362.898315
36.60 359.034424
36.62 365.195801
36.64 369.93042
36.66 367.766907
36.68 362.952728
36.70 363.224396
36.72 361.554657
36.74 366.137085
36.76 356.749603
36.78 354.818542
36.80 354.908356
36.82 357.846375
36.84 354.01355
36.86 355.281372
36.88 358.455078
36.90 360.216919
36.92 349.966187
36.94 350.366119
36.96 353.999084
36.98 354.632111
37.00 350.557892
37.02 351.871826
37.04 358.924255
37.06 348.402588
37.08 347.814667
37.10 353.614655
37.12 351.911011
37.14 352.206177
37.16 349.776917
37.18 346.170837
37.20 347.531677
37.22 352.275055
37.24 347.933472
37.26 342.138824
37.28 346.651825
37.30 346.477722
37.32 349.369781
37.34 347.057312
37.36 350.402222
37.38 348.437622
37.40 350.807587
37.42 345.474304
37.44 341.459351
37.46 335.260529
37.48 347.25708
37.50 348.246277
37.52 343.004883
37.54 343.770264
37.56 349.012177
37.58 339.046082
37.60 338.131958
37.62 338.837646
37.64 339.077698
37.66 341.073456
37.68 337.098602
37.70 334.225769
37.72 335.04422
37.74 342.919159
37.76 340.012787
37.78 339.115387
37.80 344.298859
37.82 343.072571
37.84 335.86731
37.86 335.695679
37.88 340.87323
37.90 340.357056
37.92 332.816711
37.94 330.573578
37.96 331.228027
37.98 336.388489
38.00 340.134216
38.02 334.822601
38.04 334.791565
38.06 331.598602
38.08 326.91684
38.10 335.443054
38.12 333.333588
38.14 332.140045
38.16 328.800354
38.18 332.460144
38.20 328.633911
38.22 325.741241
38.24 330.752502
38.26 332.113434
38.28 332.484924
38.30 335.690338
38.32 335.068176
38.34 332.632477
38.36 328.824799
38.38 332.979645
38.40 328.395966
38.42 332.365479
38.44 331.545715
38.46 335.026062
38.48 326.619415
38.50 329.100952
38.52 330.052032
38.54 328.432831
38.56 327.78833
38.58 330.068481
38.60 327.758453
38.62 330.798767
38.64 327.369659
38.66 326.958374
38.68 330.251465
38.70 327.522614
38.72 328.719543
38.74 326.170563
38.76 325.531097
38.78 324.822723
38.80 326.374756
38.82 323.048767
38.84 317.594604
38.86 320.563354
38.88 318.029755
38.90 318.775635
38.92 318.485443
38.94 324.737091
38.96 316.227478
38.98 317.48175
39.00 316.327759
39.02 313.083923
39.04 317.944977
39.06 322.797668
39.08 322.070099
39.10 319.479004
39.12 318.434662
39.14 316.306366
39.16 314.341797
39.18 313.993042
39.20 313.798584
39.22 314.413727
39.24 314.418549
39.26 320.623535
39.28 323.15033
39.30 318.960052
39.32 308.770782
39.34 315.415985
39.36 318.426605
39.38 312.143433
39.40 316.584473
39.42 317.011169
39.44 318.791809
39.46 314.78476
39.48 312.444611
39.50 314.696289
39.52 310.673645
39.54 320.36618
39.56 319.213226
39.58 309.724365
39.60 308.732605
39.62 308.912262
39.64 311.947662
39.66 312.84317
39.68 312.581848
39.70 313.630371
39.72 310.652832
39.74 309.617798
39.76 305.391052
39.78 304.45401
39.80 306.261566
39.82 307.939148
39.84 308.121307
39.86 306.546326
39.88 296.601288
39.90 302.166687
39.92 301.506989
39.94 301.44928
39.96 306.399261
39.98 302.614929
40.00 301.770569
