!@!!GADDS PLOTSO FILE: Chi integration type
!@!!Title/SampleName: ML_MAPbX3_chem3
!@!!User: NREL
!@!!Site: NREL SERF C211; SN 2510
!@!!Frame: C:\frames\rbelisle\MLProject\ML_MAPbX3_chem3_000_002.gfrm
!@!!Wavelengths    1.54184   1.54056   1.54439
!@!!Frame angles: 2Theta: 28.000 Omega: 5.000 Phi: 0.000 Chi: 90.000
!@!!Integration range: 2Theta: 10.000 to 40.000  Gamma: -100.000 to -80.000
!@!!Integration method: bin normalized
!@!N
!@!SS
!@!M
!@!L 0.0 0.0 0.0 0.0
!@!XDegrees
!@!YCounts
10.00 220.719849
10.02 196.817841
10.04 197.12056
10.06 210.008789
10.08 196.089081
10.10 201.262039
10.12 199.757843
10.14 202.858658
10.16 214.35054
10.18 200.113556
10.20 204.152328
10.22 212.236404
10.24 202.786438
10.26 219.474792
10.28 221.952042
10.30 211.505142
10.32 202.174301
10.34 191.933365
10.36 218.565155
10.38 206.418213
10.40 193.841187
10.42 185.657043
10.44 190.50621
10.46 219.62468
10.48 235.49736
10.50 235.780884
10.52 238.36174
10.54 238.323334
10.56 213.890717
10.58 204.552597
10.60 212.006073
10.62 220.556152
10.64 225.446289
10.66 217.468094
10.68 233.242065
10.70 238.601151
10.72 226.690369
10.74 229.496323
10.76 232.348953
10.78 215.97937
10.80 205.279358
10.82 222.890274
10.84 230.400482
10.86 244.341644
10.88 230.553986
10.90 226.997391
10.92 223.487442
10.94 208.856049
10.96 224.625076
10.98 220.78653
11.00 210.399872
11.02 210.246231
11.04 229.431656
11.06 228.445282
11.08 237.153931
11.10 244.134567
11.12 243.403702
11.14 247.67334
11.16 250.047531
11.18 230.648911
11.20 228.298203
11.22 224.616898
11.24 216.466049
11.26 235.333939
11.28 232.689667
11.30 230.814041
11.32 236.482315
11.34 245.175827
11.36 247.809937
11.38 243.976578
11.40 249.333435
11.42 229.858322
11.44 235.141754
11.46 256.595459
11.48 267.951172
11.50 245.210022
11.52 252.213226
11.54 264.003937
11.56 235.863144
11.58 227.877945
11.60 242.021912
11.62 253.970932
11.64 259.641541
11.66 253.310898
11.68 273.543121
11.70 276.363007
11.72 264.223511
11.74 254.133484
11.76 256.997589
11.78 252.401505
11.80 269.243591
11.82 263.627319
11.84 268.230408
11.86 262.726868
11.88 254.950943
11.90 258.982208
11.92 275.69873
11.94 281.408112
11.96 262.547791
11.98 276.481506
12.00 283.747894
12.02 265.235474
12.04 254.391235
12.06 282.566498
12.08 267.109375
12.10 260.497467
12.12 277.163147
12.14 286.44223
12.16 270.133026
12.18 263.624664
12.20 274.627716
12.22 258.550079
12.24 285.85791
12.26 278.589264
12.28 263.247864
12.30 284.91156
12.32 295.307251
12.34 274.19339
12.36 279.610748
12.38 280.248077
12.40 288.226685
12.42 295.559174
12.44 314.96167
12.46 307.220856
12.48 289.982178
12.50 293.863251
12.52 297.880035
12.54 292.568878
12.56 303.320831
12.58 328.763275
12.60 306.844513
12.62 311.554932
12.64 301.13031
12.66 311.085938
12.68 318.843262
12.70 317.204895
12.72 313.926239
12.74 333.247284
12.76 325.33255
12.78 322.185547
12.80 326.33493
12.82 341.136017
12.84 321.436371
12.86 321.348694
12.88 317.558105
12.90 322.147217
12.92 320.609406
12.94 347.951691
12.96 338.330353
12.98 325.361786
13.00 324.082581
13.02 315.017761
13.04 313.871185
13.06 326.724457
13.08 324.081482
13.10 310.941711
13.12 310.762512
13.14 338.587799
13.16 331.328674
13.18 341.539032
13.20 323.076447
13.22 339.278748
13.24 348.982727
13.26 362.523407
13.28 335.871796
13.30 309.743042
13.32 316.443817
13.34 313.830414
13.36 335.84433
13.38 339.392029
13.40 344.507385
13.42 340.622223
13.44 315.019684
13.46 332.663574
13.48 350.687988
13.50 355.786713
13.52 336.764587
13.54 335.602692
13.56 341.361481
13.58 357.710052
13.60 345.703827
13.62 346.455872
13.64 347.777039
13.66 355.309235
13.68 343.275085
13.70 330.356506
13.72 349.6492
13.74 348.202057
13.76 355.761292
13.78 378.755951
13.80 390.557373
13.82 371.517487
13.84 371.549377
13.86 367.601563
13.88 356.563568
13.90 354.528412
13.92 345.630554
13.94 377.544495
13.96 373.82132
13.98 373.554321
14.00 368.139648
14.02 382.582001
14.04 373.438232
14.06 372.403748
14.08 388.730286
14.10 372.480499
14.12 371.50885
14.14 358.419159
14.16 374.864624
14.18 371.054138
14.20 368.250732
14.22 370.686676
14.24 360.511902
14.26 365.503021
14.28 370.157898
14.30 388.983704
14.32 398.068451
14.34 399.807007
14.36 405.083069
14.38 408.749359
14.40 397.090637
14.42 402.41983
14.44 429.045288
14.46 428.667877
14.48 426.455261
14.50 444.673401
14.52 437.483032
14.54 415.163574
14.56 444.290161
14.58 439.423309
14.60 460.9776
14.62 466.356354
14.64 472.454376
14.66 469.549927
14.68 479.158997
14.70 502.547211
14.72 494.992218
14.74 508.367706
14.76 556.360291
14.78 556.092773
14.80 570.492065
14.82 596.134949
14.84 617.20343
14.86 655.894775
14.88 698.939941
14.90 723.664001
14.92 790.132568
14.94 827.46637
14.96 848.40802
14.98 880.230408
15.00 942.309448
15.02 1020.520264
15.04 1075.563721
15.06 1137.700562
15.08 1239.853516
15.10 1329.505371
15.12 1420.355835
15.14 1511.938477
15.16 1611.926758
15.18 1723.296265
15.20 1840.518433
15.22 2010.87561
15.24 2209.042236
15.26 2397.25
15.28 2571.051025
15.30 2694.431152
15.32 2911.26123
15.34 3115.075928
15.36 3299.141113
15.38 3435.701416
15.40 3587.219238
15.42 3682.074463
15.44 3701.542969
15.46 3691.581299
15.48 3638.662842
15.50 3496.286621
15.52 3320.121582
15.54 3064.504883
15.56 2894.321289
15.58 2684.503418
15.60 2433.031006
15.62 2182.271729
15.64 1978.954834
15.66 1834.8125
15.68 1656.912842
15.70 1494.4552
15.72 1352.103149
15.74 1226.373291
15.76 1118.021362
15.78 1065.950562
15.80 961.816528
15.82 926.954163
15.84 856.454529
15.86 779.591309
15.88 757.221436
15.90 741.326538
15.92 711.47699
15.94 683.109436
15.96 682.377686
15.98 662.560791
16.00 637.400146
16.02 625.672974
16.04 575.562317
16.06 538.733948
16.08 526.139832
16.10 549.32373
16.12 526.425415
16.14 519.081909
16.16 497.576996
16.18 492.740601
16.20 497.504608
16.22 480.107544
16.24 474.980713
16.26 462.408691
16.28 455.599304
16.30 439.997131
16.32 446.639923
16.34 435.889862
16.36 424.237457
16.38 422.6026
16.40 410.71817
16.42 398.064331
16.44 391.876587
16.46 403.066254
16.48 393.940277
16.50 397.841309
16.52 405.268341
16.54 411.106812
16.56 395.945374
16.58 406.063995
16.60 401.1362
16.62 374.708466
16.64 390.095459
16.66 390.783539
16.68 366.540344
16.70 363.344055
16.72 370.770416
16.74 383.20932
16.76 385.878632
16.78 374.038879
16.80 371.910034
16.82 377.827728
16.84 381.380341
16.86 409.886963
16.88 389.263397
16.90 383.957123
16.92 387.63031
16.94 382.502319
16.96 381.268707
16.98 349.446503
17.00 355.583008
17.02 380.513977
17.04 375.116302
17.06 367.13678
17.08 379.447662
17.10 365.133606
17.12 355.31192
17.14 347.914825
17.16 367.942993
17.18 383.208374
17.20 390.674805
17.22 374.071106
17.24 373.45816
17.26 387.41806
17.28 381.213593
17.30 387.534271
17.32 399.222168
17.34 387.101135
17.36 385.381592
17.38 393.110474
17.40 374.107483
17.42 377.205536
17.44 385.116974
17.46 379.418762
17.48 367.493408
17.50 366.269745
17.52 384.880768
17.54 388.111389
17.56 381.184875
17.58 361.411743
17.60 348.705963
17.62 395.326202
17.64 390.835632
17.66 385.811279
17.68 399.913452
17.70 399.960022
17.72 382.197937
17.74 360.50946
17.76 330.627106
17.78 362.500946
17.80 405.881256
17.82 417.109009
17.84 408.562958
17.86 391.172119
17.88 393.634155
17.90 376.512573
17.92 373.667694
17.94 370.878967
17.96 391.663849
17.98 395.094666
18.00 383.221558
18.02 396.762573
18.04 382.167938
18.06 394.001587
18.08 390.085663
18.10 385.625244
18.12 395.037537
18.14 415.169891
18.16 406.702515
18.18 401.286133
18.20 399.689758
18.22 408.650055
18.24 403.573883
18.26 389.265991
18.28 407.450348
18.30 407.639648
18.32 410.157166
18.34 420.520538
18.36 413.006073
18.38 413.048889
18.40 433.497223
18.42 422.089294
18.44 399.262634
18.46 408.567627
18.48 426.717133
18.50 437.809662
18.52 424.062927
18.54 410.543884
18.56 395.900726
18.58 409.101837
18.60 400.09256
18.62 400.375305
18.64 409.255981
18.66 417.149353
18.68 409.182312
18.70 422.192322
18.72 431.887695
18.74 417.071777
18.76 413.769226
18.78 410.224731
18.80 428.45697
18.82 447.781158
18.84 431.496948
18.86 433.83078
18.88 424.427368
18.90 421.202545
18.92 437.630432
18.94 425.287445
18.96 436.36618
18.98 425.549438
19.00 446.781281
19.02 451.473114
19.04 456.541565
19.06 456.670227
19.08 459.499542
19.10 433.675507
19.12 435.641968
19.14 435.374847
19.16 437.730652
19.18 441.409454
19.20 454.649109
19.22 437.100433
19.24 440.027649
19.26 456.897064
19.28 465.928192
19.30 448.967499
19.32 436.483093
19.34 432.358551
19.36 449.398285
19.38 445.819122
19.40 454.612396
19.42 451.090454
19.44 450.315491
19.46 440.906189
19.48 437.878876
19.50 442.399109
19.52 458.305603
19.54 492.514771
19.56 463.542999
19.58 451.762817
19.60 458.49527
19.62 474.535736
19.64 472.456573
19.66 470.518677
19.68 457.037811
19.70 461.329651
19.72 458.121857
19.74 477.132385
19.76 471.810883
19.78 455.243896
19.80 452.45752
19.82 463.584259
19.84 477.642548
19.86 454.016479
19.88 455.985474
19.90 475.314758
19.92 487.394073
19.94 498.168518
19.96 484.428314
19.98 498.595154
20.00 476.892975
20.02 483.071564
20.04 491.636749
20.06 482.220367
20.08 486.043549
20.10 489.361359
20.12 481.80188
20.14 474.308868
20.16 479.628815
20.18 459.046112
20.20 482.419647
20.22 494.244385
20.24 511.363892
20.26 512.560242
20.28 487.243317
20.30 489.86142
20.32 504.944305
20.34 500.728516
20.36 481.568298
20.38 486.656738
20.40 491.352661
20.42 481.685455
20.44 511.926605
20.46 498.243561
20.48 511.545807
20.50 495.562469
20.52 522.052002
20.54 504.758789
20.56 503.331238
20.58 507.985474
20.60 486.892639
20.62 502.591644
20.64 532.856689
20.66 524.292725
20.68 486.707855
20.70 497.708801
20.72 522.141907
20.74 529.703735
20.76 535.348511
20.78 523.647217
20.80 529.882019
20.82 528.133179
20.84 532.969666
20.86 542.920837
20.88 530.367126
20.90 523.934753
20.92 543.239136
20.94 544.110107
20.96 527.38562
20.98 520.299377
21.00 537.371094
21.02 540.992126
21.04 535.38678
21.06 545.102112
21.08 517.212585
21.10 516.246948
21.12 524.205383
21.14 562.464783
21.16 570.363525
21.18 575.201233
21.20 558.933655
21.22 551.241333
21.24 540.296692
21.26 555.308411
21.28 545.357605
21.30 557.172913
21.32 553.743225
21.34 531.736816
21.36 558.615967
21.38 563.65332
21.40 557.5578
21.42 554.026184
21.44 551.9776
21.46 556.845337
21.48 561.453918
21.50 556.639099
21.52 579.048584
21.54 575.811829
21.56 566.381165
21.58 559.588867
21.60 558.050842
21.62 576.435059
21.64 579.391846
21.66 565.372498
21.68 559.906799
21.70 563.866089
21.72 582.793457
21.74 572.422668
21.76 570.612061
21.78 583.217834
21.80 612.531555
21.82 613.637329
21.84 594.010803
21.86 579.254456
21.88 586.082764
21.90 592.591614
21.92 608.46405
21.94 608.769165
21.96 586.967834
21.98 584.42157
22.00 592.206665
22.02 577.310913
22.04 576.97937
22.06 610.979492
22.08 587.172302
22.10 577.049438
22.12 590.037231
22.14 590.218079
22.16 584.885376
22.18 597.580688
22.20 611.936584
22.22 613.405457
22.24 601.191711
22.26 586.526123
22.28 586.467651
22.30 607.980225
22.32 593.93219
22.34 605.564514
22.36 591.147156
22.38 571.68634
22.40 570.646545
22.42 568.301025
22.44 577.25354
22.46 597.742004
22.48 613.029053
22.50 615.22113
22.52 615.458008
22.54 596.570313
22.56 599.141418
22.58 601.302246
22.60 605.283936
22.62 585.872192
22.64 586.453064
22.66 595.744141
22.68 605.488464
22.70 591.179077
22.72 579.563049
22.74 585.266907
22.76 572.876831
22.78 590.463562
22.80 587.603455
22.82 623.602173
22.84 639.82782
22.86 623.82489
22.88 612.739563
22.90 611.719849
22.92 623.928833
22.94 621.976501
22.96 618.657715
22.98 614.009399
23.00 614.128662
23.02 605.06665
23.04 622.86499
23.06 624.280945
23.08 603.653992
23.10 614.471069
23.12 600.722168
23.14 602.403748
23.16 618.072144
23.18 642.962341
23.20 624.997314
23.22 631.778015
23.24 645.60968
23.26 631.622681
23.28 617.752075
23.30 607.36261
23.32 621.900269
23.34 622.684998
23.36 620.152039
23.38 588.800415
23.40 609.9776
23.42 618.776794
23.44 609.81842
23.46 605.217102
23.48 618.044678
23.50 615.041687
23.52 619.818787
23.54 624.632874
23.56 601.584656
23.58 617.784302
23.60 614.131104
23.62 612.696533
23.64 622.248596
23.66 624.367126
23.68 632.032776
23.70 624.486877
23.72 626.422791
23.74 645.487122
23.76 646.895081
23.78 627.878906
23.80 634.595642
23.82 649.698669
23.84 627.019104
23.86 625.533875
23.88 646.81543
23.90 646.4552
23.92 646.437744
23.94 647.725098
23.96 617.761719
23.98 624.088928
24.00 644.457703
24.02 651.553162
24.04 647.105225
24.06 645.180176
24.08 638.842163
24.10 651.694763
24.12 647.265686
24.14 641.600037
24.16 647.783508
24.18 641.237793
24.20 620.051697
24.22 624.778198
24.24 631.36615
24.26 639.878967
24.28 632.372925
24.30 644.517273
24.32 646.49353
24.34 638.375732
24.36 632.544067
24.38 617.035034
24.40 624.607239
24.42 641.521973
24.44 643.009033
24.46 637.155151
24.48 629.835754
24.50 636.333984
24.52 636.309937
24.54 643.412476
24.56 633.275635
24.58 635.578003
24.60 634.430969
24.62 647.390076
24.64 639.403687
24.66 631.871643
24.68 640.699158
24.70 628.730286
24.72 629.599976
24.74 617.567932
24.76 623.674072
24.78 647.069153
24.80 627.473755
24.82 626.386169
24.84 634.929199
24.86 625.896484
24.88 616.440491
24.90 624.864014
24.92 637.532349
24.94 632.6828
24.96 636.983521
24.98 635.656616
25.00 634.08667
25.02 639.697754
25.04 650.614746
25.06 641.832397
25.08 636.167603
25.10 656.443848
25.12 655.488342
25.14 652.517639
25.16 642.771729
25.18 644.650085
25.20 653.88739
25.22 619.897766
25.24 628.33905
25.26 642.220947
25.28 626.687988
25.30 655.839661
25.32 657.750671
25.34 636.91449
25.36 643.822205
25.38 643.795898
25.40 627.827759
25.42 641.401123
25.44 640.307129
25.46 631.307739
25.48 644.17395
25.50 639.048828
25.52 647.763428
25.54 653.691833
25.56 640.835022
25.58 626.968933
25.60 642.955261
25.62 630.896362
25.64 618.955505
25.66 626.505432
25.68 632.838135
25.70 633.567688
25.72 628.372864
25.74 629.67749
25.76 630.735229
25.78 638.038635
25.80 633.285339
25.82 631.226318
25.84 635.088379
25.86 616.265076
25.88 619.748474
25.90 636.627808
25.92 640.083618
25.94 635.002991
25.96 634.444458
25.98 627.418274
26.00 624.733398
26.02 638.63501
26.04 640.363953
26.06 624.126526
26.08 632.400635
26.10 624.410278
26.12 636.697021
26.14 650.017761
26.16 638.078857
26.18 622.871521
26.20 637.861328
26.22 650.13446
26.24 638.841492
26.26 635.430298
26.28 636.881042
26.30 623.848694
26.32 628.914246
26.34 616.869141
26.36 631.209167
26.38 625.739014
26.40 644.535461
26.42 642.940247
26.44 631.706848
26.46 628.817932
26.48 670.074951
26.50 661.757446
26.52 640.725586
26.54 638.925354
26.56 627.852722
26.58 619.700439
26.60 629.88446
26.62 622.837402
26.64 619.492065
26.66 635.500793
26.68 637.207397
26.70 640.231506
26.72 638.993835
26.74 627.667725
26.76 627.400818
26.78 620.999512
26.80 629.722778
26.82 637.635925
26.84 645.087158
26.86 652.458435
26.88 621.261047
26.90 637.251709
26.92 640.563904
26.94 623.494934
26.96 625.2771
26.98 647.073425
27.00 636.496582
27.02 641.514282
27.04 637.607178
27.06 629.7901
27.08 628.366638
27.10 617.984558
27.12 618.372009
27.14 635.143127
27.16 629.685669
27.18 606.964539
27.20 600.393188
27.22 628.0448
27.24 635.728638
27.26 626.113525
27.28 631.311218
27.30 627.288818
27.32 622.976807
27.34 601.861877
27.36 585.394226
27.38 615.297791
27.40 630.176819
27.42 635.397949
27.44 635.417847
27.46 624.510498
27.48 613.463501
27.50 618.937195
27.52 643.3302
27.54 631.111694
27.56 608.746826
27.58 624.728027
27.60 635.535645
27.62 641.554504
27.64 638.327332
27.66 628.198547
27.68 623.820435
27.70 606.780945
27.72 625.618835
27.74 625.433411
27.76 626.46698
27.78 618.332153
27.80 603.328918
27.82 603.781006
27.84 631.223206
27.86 642.32074
27.88 626.40802
27.90 624.100037
27.92 645.887451
27.94 621.480164
27.96 589.261047
27.98 613.525757
28.00 614.04718
28.02 607.294556
28.04 618.519836
28.06 621.510071
28.08 635.946655
28.10 623.795593
28.12 610.839966
28.14 612.412048
28.16 615.500122
28.18 621.751465
28.20 614.285217
28.22 622.62207
28.24 628.169312
28.26 626.280823
28.28 609.072266
28.30 608.456726
28.32 608.25
28.34 624.341675
28.36 635.350037
28.38 637.709656
28.40 610.03241
28.42 600.968201
28.44 616.46582
28.46 622.571716
28.48 637.151733
28.50 624.184143
28.52 603.518982
28.54 611.27179
28.56 615.521729
28.58 635.12323
28.60 614.870728
28.62 597.704834
28.64 607.201782
28.66 628.571289
28.68 603.340759
28.70 617.344788
28.72 636.205811
28.74 635.744019
28.76 617.733582
28.78 630.149841
28.80 616.552307
28.82 605.858337
28.84 602.494324
28.86 603.416077
28.88 609.979004
28.90 621.020874
28.92 624.294495
28.94 621.500732
28.96 600.347351
28.98 614.532227
29.00 622.894287
29.02 611.65686
29.04 617.112427
29.06 614.066528
29.08 610.357849
29.10 625.896118
29.12 638.849731
29.14 613.357178
29.16 611.516418
29.18 630.06781
29.20 617.30365
29.22 601.443726
29.24 608.57666
29.26 633.609314
29.28 628.002686
29.30 628.25238
29.32 609.979736
29.34 614.621094
29.36 629.204529
29.38 616.503906
29.40 617.278381
29.42 622.019226
29.44 622.965393
29.46 635.026611
29.48 623.431274
29.50 618.159363
29.52 608.304993
29.54 612.745972
29.56 636.890076
29.58 637.165649
29.60 638.468994
29.62 633.92627
29.64 611.358765
29.66 611.353943
29.68 644.03186
29.70 653.384766
29.72 630.938599
29.74 619.139343
29.76 621.078735
29.78 618.857605
29.80 618.652222
29.82 615.185669
29.84 624.782898
29.86 617.266907
29.88 631.545715
29.90 642.713013
29.92 647.255981
29.94 644.462585
29.96 650.429382
29.98 642.660767
30.00 642.993286
30.02 627.236389
30.04 623.18811
30.06 643.026855
30.08 657.727478
30.10 652.094666
30.12 652.628906
30.14 643.5354
30.16 638.773621
30.18 642.104248
30.20 637.584778
30.22 636.774536
30.24 636.193176
30.26 650.917175
30.28 642.063782
30.30 649.974182
30.32 655.013977
30.34 653.155884
30.36 674.089111
30.38 683.703308
30.40 659.285828
30.42 660.030579
30.44 673.555237
30.46 658.368896
30.48 647.937866
30.50 659.455322
30.52 673.049866
30.54 671.634399
30.56 671.86908
30.58 656.277283
30.60 678.990967
30.62 698.241516
30.64 693.52301
30.66 699.653625
30.68 698.436157
30.70 687.707214
30.72 693.348877
30.74 710.857361
30.76 721.118103
30.78 738.925354
30.80 724.107056
30.82 749.18866
30.84 763.568665
30.86 784.060181
30.88 802.014648
30.90 821.004883
30.92 866.433716
30.94 896.115234
30.96 931.94696
30.98 971.484741
31.00 974.478821
31.02 1047.153564
31.04 1146.36438
31.06 1189.522583
31.08 1217.81189
31.10 1282.523804
31.12 1344.650635
31.14 1396.086426
31.16 1436.701172
31.18 1437.9198
31.20 1457.192383
31.22 1428.093872
31.24 1396.63147
31.26 1365.533936
31.28 1330.651978
31.30 1275.465088
31.32 1242.750977
31.34 1173.14209
31.36 1079.330078
31.38 1023.699402
31.40 990.78833
31.42 943.539917
31.44 895.929688
31.46 845.630249
31.48 790.204712
31.50 754.439087
31.52 727.798645
31.54 729.700195
31.56 703.625977
31.58 693.928894
31.60 685.055176
31.62 670.869263
31.64 661.397217
31.66 644.373047
31.68 654.389404
31.70 651.586731
31.72 636.369568
31.74 622.941956
31.76 640.251404
31.78 618.812439
31.80 624.351074
31.82 633.387939
31.84 616.788147
31.86 611.773254
31.88 598.926392
31.90 593.159607
31.92 591.286926
31.94 601.189392
31.96 616.794128
31.98 606.480591
32.00 591.44458
32.02 582.765198
32.04 584.753723
32.06 579.405762
32.08 600.018311
32.10 594.627686
32.12 573.512939
32.14 583.098206
32.16 573.329651
32.18 575.216553
32.20 575.27948
32.22 575.436218
32.24 564.201538
32.26 584.767029
32.28 578.460876
32.30 567.080383
32.32 560.186707
32.34 582.288208
32.36 574.280518
32.38 560.092346
32.40 559.80481
32.42 556.371094
32.44 540.85675
32.46 537.876099
32.48 559.836792
32.50 549.287048
32.52 551.064087
32.54 562.657959
32.56 558.150208
32.58 559.081238
32.60 542.591736
32.62 517.054199
32.64 534.075989
32.66 563.273376
32.68 537.893982
32.70 512.029602
32.72 523.639709
32.74 547.911926
32.76 557.228027
32.78 547.836304
32.80 546.333313
32.82 521.00824
32.84 521.328857
32.86 531.154419
32.88 520.744507
32.90 507.812317
32.92 516.122864
32.94 524.562195
32.96 509.813751
32.98 521.61261
33.00 522.018494
33.02 516.766846
33.04 525.843079
33.06 518.343994
33.08 521.231628
33.10 517.494385
33.12 520.118713
33.14 528.973633
33.16 517.950623
33.18 518.696228
33.20 510.249115
33.22 521.402832
33.24 524.151978
33.26 516.711365
33.28 514.884338
33.30 524.660645
33.32 514.142456
33.34 502.679962
33.36 496.487488
33.38 512.623108
33.40 516.798401
33.42 514.06897
33.44 502.545532
33.46 514.865295
33.48 517.132202
33.50 512.874817
33.52 522.086487
33.54 513.393799
33.56 484.21106
33.58 495.179169
33.60 515.829712
33.62 504.980743
33.64 501.136383
33.66 494.175842
33.68 497.116577
33.70 495.0578
33.72 494.382111
33.74 492.613434
33.76 500.463043
33.78 501.859436
33.80 497.218933
33.82 499.180695
33.84 493.200928
33.86 499.33374
33.88 493.585358
33.90 507.000671
33.92 496.173035
33.94 491.140839
33.96 495.915466
33.98 496.457001
34.00 473.47876
34.02 469.105164
34.04 479.675964
34.06 477.658081
34.08 486.135132
34.10 483.08667
34.12 469.956879
34.14 474.506897
34.16 471.913666
34.18 472.606445
34.20 481.178772
34.22 513.366394
34.24 483.515686
34.26 452.065308
34.28 462.043915
34.30 481.078094
34.32 481.637177
34.34 460.987946
34.36 464.626953
34.38 472.166595
34.40 480.092102
34.42 471.900024
34.44 477.876678
34.46 468.629852
34.48 468.287659
34.50 462.511688
34.52 459.509949
34.54 461.399994
34.56 463.061798
34.58 475.672211
34.60 470.322083
34.62 466.823242
34.64 473.51593
34.66 470.267578
34.68 461.541107
34.70 460.33371
34.72 467.601288
34.74 464.512207
34.76 490.89502
34.78 481.993591
34.80 460.588348
34.82 460.196075
34.84 467.283875
34.86 469.452911
34.88 467.10434
34.90 464.585449
34.92 462.64389
34.94 475.527008
34.96 488.205811
34.98 469.229523
35.00 460.928925
35.02 472.656433
35.04 457.252716
35.06 464.47226
35.08 472.424683
35.10 472.539368
35.12 468.257568
35.14 457.996521
35.16 457.411011
35.18 456.634094
35.20 457.826019
35.22 456.708313
35.24 453.829498
35.26 436.400665
35.28 443.375397
35.30 431.12854
35.32 421.396332
35.34 437.164093
35.36 452.480469
35.38 440.587585
35.40 413.506836
35.42 431.274933
35.44 440.020142
35.46 442.709869
35.48 438.545898
35.50 438.821259
35.52 434.247498
35.54 428.60257
35.56 433.920746
35.58 424.593597
35.60 430.248779
35.62 436.302734
35.64 424.231201
35.66 425.174225
35.68 423.177979
35.70 438.045288
35.72 433.640778
35.74 430.878662
35.76 427.846832
35.78 418.082184
35.80 411.31897
35.82 419.57251
35.84 417.869202
35.86 411.785004
35.88 402.672333
35.90 397.341187
35.92 399.790009
35.94 418.682434
35.96 420.141571
35.98 408.540009
36.00 414.916382
36.02 422.352295
36.04 406.625
36.06 392.186859
36.08 396.955048
36.10 400.103912
36.12 411.247986
36.14 401.135651
36.16 388.529694
36.18 402.545258
36.20 391.637512
36.22 393.056335
36.24 388.466797
36.26 405.151672
36.28 414.376343
36.30 403.70105
36.32 400.488525
36.34 394.472382
36.36 395.107086
36.38 400.566406
36.40 400.117432
36.42 392.277527
36.44 387.399048
36.46 387.457489
36.48 400.366119
36.50 392.397949
36.52 386.055939
36.54 381.708649
36.56 376.236969
36.58 385.994873
36.60 396.114502
36.62 394.0495
36.64 387.123718
36.66 381.970184
36.68 386.702545
36.70 381.18042
36.72 380.303345
36.74 372.707977
36.76 384.333862
36.78 385.167267
36.80 378.898224
36.82 381.3526
36.84 377.062775
36.86 374.382935
36.88 367.289551
36.90 367.826477
36.92 375.215302
36.94 380.568695
36.96 376.007172
36.98 374.913696
37.00 370.292267
37.02 359.244385
37.04 365.406097
37.06 372.020691
37.08 368.517212
37.10 384.007538
37.12 376.317383
37.14 370.499664
37.16 367.587616
37.18 374.875977
37.20 379.256622
37.22 368.156555
37.24 359.774109
37.26 378.856995
37.28 378.509247
37.30 367.013611
37.32 368.93457
37.34 371.594727
37.36 370.329407
37.38 361.562805
37.40 365.183411
37.42 363.596375
37.44 367.706482
37.46 361.926392
37.48 354.660583
37.50 346.061127
37.52 355.539368
37.54 368.02475
37.56 366.554749
37.58 360.957153
37.60 373.730774
37.62 367.155151
37.64 360.286011
37.66 354.693726
37.68 341.687225
37.70 353.965149
37.72 363.32901
37.74 365.645996
37.76 361.927795
37.78 357.799316
37.80 352.34079
37.82 351.980438
37.84 354.7612
37.86 346.792328
37.88 343.716614
37.90 350.028687
37.92 351.536896
37.94 350.873413
37.96 351.753418
37.98 339.856201
38.00 345.294647
38.02 327.192688
38.04 330.772919
38.06 346.182465
38.08 344.103302
38.10 348.718109
38.12 343.180573
38.14 343.644989
38.16 341.405396
38.18 343.858459
38.20 344.087402
38.22 345.172791
38.24 345.962402
38.26 356.567993
38.28 352.31546
38.30 351.36676
38.32 356.982208
38.34 358.010956
38.36 349.395538
38.38 345.314209
38.40 345.430939
38.42 343.618134
38.44 340.913574
38.46 344.410919
38.48 353.08255
38.50 358.631134
38.52 351.921631
38.54 356.668243
38.56 353.491028
38.58 351.464233
38.60 344.889923
38.62 331.202209
38.64 329.899506
38.66 327.114899
38.68 321.341888
38.70 330.580475
38.72 336.803162
38.74 328.081787
38.76 321.957794
38.78 326.455078
38.80 332.713989
38.82 323.568451
38.84 330.16684
38.86 339.66153
38.88 325.970276
38.90 331.676819
38.92 335.674316
38.94 322.808929
38.96 332.06015
38.98 337.363007
39.00 337.819855
39.02 323.952179
39.04 319.536194
39.06 319.165955
39.08 322.900879
39.10 322.585541
39.12 337.710876
39.14 333.486969
39.16 336.294678
39.18 325.034454
39.20 315.948761
39.22 323.99173
39.24 338.17392
39.26 337.644226
39.28 322.566162
39.30 325.143616
39.32 316.644714
39.34 309.855438
39.36 334.468842
39.38 326.165192
39.40 330.452606
39.42 320.057831
39.44 329.155579
39.46 325.429291
39.48 319.866028
39.50 317.283142
39.52 314.544708
39.54 317.932098
39.56 321.687164
39.58 317.831879
39.60 318.845886
39.62 332.305237
39.64 326.616547
39.66 330.05954
39.68 328.161041
39.70 307.482117
39.72 320.332947
39.74 329.430206
39.76 316.569031
39.78 328.521393
39.80 318.622253
39.82 322.466492
39.84 331.849304
39.86 324.176208
39.88 319.906616
39.90 320.774811
39.92 319.034119
39.94 319.623901
39.96 323.962738
39.98 328.167664
40.00 334.661407
