!@!!GADDS PLOTSO FILE: Chi integration type
!@!!Title/SampleName: ML_MAPbX3_chem3
!@!!User: NREL
!@!!Site: NREL SERF C211; SN 2510
!@!!Frame: C:\frames\rbelisle\MLProject\ML_MAPbX3_chem3_000_002.gfrm
!@!!Wavelengths    1.54184   1.54056   1.54439
!@!!Frame angles: 2Theta: 28.000 Omega: 5.000 Phi: 0.000 Chi: 90.000
!@!!Integration range: 2Theta: 10.000 to 40.000  Gamma: -135.000 to -110.000
!@!!Integration method: bin normalized
!@!N
!@!SS
!@!M
!@!L 0.0 0.0 0.0 0.0
!@!XDegrees
!@!YCounts
10.00 118.391655
10.02 115.012726
10.04 116.820091
10.06 111.445053
10.08 118.090454
10.10 115.428734
10.12 117.908051
10.14 125.001953
10.16 142.44577
10.18 140.776703
10.20 124.640411
10.22 121.438629
10.24 127.351982
10.26 123.173744
10.28 126.534912
10.30 122.589104
10.32 132.632278
10.34 143.158157
10.36 141.189148
10.38 132.089539
10.40 135.555618
10.42 129.846939
10.44 138.054276
10.46 149.597824
10.48 128.540634
10.50 137.078735
10.52 151.653595
10.54 143.100647
10.56 136.837601
10.58 137.344131
10.60 136.392975
10.62 150.363083
10.64 167.244797
10.66 149.894424
10.68 138.645813
10.70 143.855713
10.72 142.063675
10.74 136.413406
10.76 144.057831
10.78 132.963028
10.80 141.053879
10.82 150.781067
10.84 154.729172
10.86 150.495514
10.88 161.933472
10.90 150.65976
10.92 146.252411
10.94 162.02507
10.96 162.281723
10.98 164.753448
11.00 170.326324
11.02 164.017761
11.04 159.164764
11.06 150.246689
11.08 147.60614
11.10 168.537445
11.12 163.771713
11.14 158.753128
11.16 150.670975
11.18 158.472702
11.20 151.572083
11.22 155.757324
11.24 167.795212
11.26 174.42572
11.28 173.998337
11.30 175.7892
11.32 171.089005
11.34 159.254684
11.36 150.482025
11.38 174.548615
11.40 175.080658
11.42 174.326324
11.44 166.103195
11.46 172.997818
11.48 167.970032
11.50 169.840286
11.52 169.118958
11.54 176.864975
11.56 184.170288
11.58 175.786865
11.60 183.999954
11.62 194.4496
11.64 182.403763
11.66 187.714096
11.68 179.351685
11.70 176.047287
11.72 175.347733
11.74 182.076111
11.76 189.76976
11.78 181.359009
11.80 173.510086
11.82 179.746262
11.84 175.434128
11.86 174.654526
11.88 182.589401
11.90 186.974228
11.92 188.440765
11.94 190.315887
11.96 185.604782
11.98 203.365509
12.00 194.447739
12.02 179.632782
12.04 178.244232
12.06 186.565521
12.08 182.619675
12.10 184.770187
12.12 198.726868
12.14 191.704956
12.16 181.14119
12.18 192.739838
12.20 180.650879
12.22 187.988297
12.24 200.379013
12.26 205.649307
12.28 202.941422
12.30 201.355225
12.32 190.40567
12.34 207.510788
12.36 204.606934
12.38 192.290161
12.40 196.759384
12.42 193.940063
12.44 197.834625
12.46 185.935638
12.48 191.894272
12.50 203.572052
12.52 210.541763
12.54 199.320404
12.56 190.68808
12.58 199.259506
12.60 213.463608
12.62 204.219193
12.64 198.111786
12.66 196.654449
12.68 210.47612
12.70 213.819977
12.72 205.543945
12.74 199.195129
12.76 197.52475
12.78 196.170074
12.80 204.102478
12.82 213.943268
12.84 217.665237
12.86 215.424286
12.88 213.849609
12.90 207.546585
12.92 216.364883
12.94 210.583618
12.96 223.005142
12.98 217.702133
13.00 216.703888
13.02 227.458618
13.04 229.866653
13.06 211.867981
13.08 197.529984
13.10 197.378906
13.12 213.757034
13.14 217.447189
13.16 213.046631
13.18 219.126373
13.20 227.912888
13.22 213.989624
13.24 212.545868
13.26 215.687057
13.28 229.487671
13.30 218.508133
13.32 225.159348
13.34 216.687729
13.36 215.440475
13.38 208.801315
13.40 216.447403
13.42 215.669144
13.44 219.875641
13.46 213.835373
13.48 209.64505
13.50 217.736038
13.52 226.741364
13.54 223.230576
13.56 212.746277
13.58 227.137314
13.60 229.115173
13.62 232.329453
13.64 216.861328
13.66 222.486343
13.68 223.139893
13.70 214.578979
13.72 230.029037
13.74 235.58432
13.76 222.226181
13.78 223.760956
13.80 228.126358
13.82 206.314468
13.84 232.564774
13.86 232.913925
13.88 227.003967
13.90 237.232834
13.92 229.830399
13.94 231.294937
13.96 241.292343
13.98 231.903214
14.00 226.323013
14.02 240.381897
14.04 242.613251
14.06 229.516296
14.08 224.180405
14.10 229.594025
14.12 235.532822
14.14 242.669327
14.16 251.818222
14.18 237.339233
14.20 242.074127
14.22 234.35553
14.24 227.810654
14.26 230.371765
14.28 247.919403
14.30 233.259689
14.32 215.772156
14.34 228.214264
14.36 244.605118
14.38 242.869614
14.40 248.577454
14.42 242.021896
14.44 242.219208
14.46 246.407593
14.48 253.536499
14.50 252.48938
14.52 252.577362
14.54 252.328888
14.56 237.090897
14.58 243.370255
14.60 241.193314
14.62 232.276093
14.64 232.304855
14.66 238.888168
14.68 257.728027
14.70 253.195877
14.72 247.678436
14.74 235.46582
14.76 247.223724
14.78 260.190674
14.80 249.106308
14.82 262.955261
14.84 272.366333
14.86 260.556946
14.88 255.254776
14.90 265.195251
14.92 254.562439
14.94 261.346344
14.96 261.961029
14.98 263.507751
15.00 269.460754
15.02 261.016693
15.04 254.51976
15.06 270.988708
15.08 284.323944
15.10 272.989716
15.12 254.209427
15.14 265.575439
15.16 273.227051
15.18 273.980591
15.20 270.537231
15.22 270.577484
15.24 283.197632
15.26 269.022522
15.28 276.524017
15.30 276.146149
15.32 283.871857
15.34 277.942291
15.36 276.097321
15.38 276.516632
15.40 272.878967
15.42 266.553131
15.44 283.703552
15.46 288.47348
15.48 287.940369
15.50 284.769196
15.52 278.535767
15.54 283.465179
15.56 286.384705
15.58 279.169556
15.60 282.224304
15.62 289.486786
15.64 285.870911
15.66 291.897308
15.68 286.984131
15.70 272.628723
15.72 267.725983
15.74 278.235535
15.76 293.541626
15.78 276.517426
15.80 276.076385
15.82 279.850525
15.84 291.292694
15.86 287.047089
15.88 276.004333
15.90 278.960999
15.92 271.81665
15.94 275.911865
15.96 275.758118
15.98 294.981598
16.00 286.03125
16.02 291.405487
16.04 283.593506
16.06 273.533417
16.08 278.297089
16.10 270.858734
16.12 282.612671
16.14 274.726013
16.16 276.27417
16.18 301.645844
16.20 295.20929
16.22 279.196747
16.24 272.768372
16.26 278.896576
16.28 290.287354
16.30 280.624084
16.32 273.600616
16.34 282.017395
16.36 304.08847
16.38 301.15094
16.40 281.730591
16.42 283.218506
16.44 273.287872
16.46 269.963287
16.48 272.349304
16.50 273.088745
16.52 286.995087
16.54 291.242554
16.56 281.892029
16.58 286.380249
16.60 288.82901
16.62 283.316833
16.64 291.355133
16.66 292.727356
16.68 291.512512
16.70 291.591431
16.72 287.560699
16.74 276.698395
16.76 287.97702
16.78 297.5672
16.80 290.636902
16.82 308.840088
16.84 298.585724
16.86 286.043762
16.88 298.176544
16.90 297.959686
16.92 291.885071
16.94 296.358887
16.96 308.417847
16.98 311.556213
17.00 313.015991
17.02 317.481812
17.04 305.448059
17.06 305.984039
17.08 304.2117
17.10 309.107178
17.12 307.233459
17.14 311.273193
17.16 305.08432
17.18 304.075409
17.20 316.504669
17.22 317.493011
17.24 301.756775
17.26 290.307587
17.28 297.233521
17.30 320.815704
17.32 314.421204
17.34 305.179596
17.36 302.926636
17.38 309.362335
17.40 321.673523
17.42 310.432159
17.44 312.809204
17.46 308.745056
17.48 314.086334
17.50 330.022766
17.52 323.047485
17.54 323.489746
17.56 328.079376
17.58 317.3349
17.60 308.584961
17.62 304.393829
17.64 307.358398
17.66 329.815033
17.68 313.991913
17.70 299.038055
17.72 299.631195
17.74 323.006744
17.76 318.280884
17.78 315.757202
17.80 338.328125
17.82 342.001801
17.84 337.354736
17.86 337.643585
17.88 326.367371
17.90 321.424194
17.92 333.275055
17.94 327.098297
17.96 321.383545
17.98 327.35257
18.00 344.422394
18.02 326.347534
18.04 336.726776
18.06 333.427338
18.08 329.834076
18.10 330.986511
18.12 335.487793
18.14 343.57663
18.16 345.335388
18.18 340.696747
18.20 336.382599
18.22 336.167358
18.24 343.993774
18.26 361.316162
18.28 342.251678
18.30 342.36792
18.32 331.695892
18.34 332.810852
18.36 345.581757
18.38 351.137451
18.40 339.504089
18.42 357.588013
18.44 367.951202
18.46 349.797577
18.48 337.921692
18.50 358.123108
18.52 360.941772
18.54 369.894714
18.56 364.421478
18.58 363.106781
18.60 344.566437
18.62 356.380615
18.64 370.402222
18.66 346.397583
18.68 356.792694
18.70 359.597198
18.72 348.58371
18.74 359.933197
18.76 363.29361
18.78 361.479126
18.80 366.56604
18.82 357.063141
18.84 358.438019
18.86 364.808899
18.88 375.620483
18.90 388.391602
18.92 379.328674
18.94 359.001617
18.96 371.211975
18.98 367.641357
19.00 369.269073
19.02 379.062561
19.04 376.775208
19.06 363.406555
19.08 360.550201
19.10 367.382385
19.12 362.677368
19.14 375.449402
19.16 376.399963
19.18 371.384521
19.20 372.781525
19.22 376.349609
19.24 380.560425
19.26 374.107178
19.28 375.66098
19.30 382.226593
19.32 381.297058
19.34 385.980865
19.36 394.407166
19.38 395.070251
19.40 393.042297
19.42 391.94046
19.44 373.878754
19.46 377.481262
19.48 378.201416
19.50 389.384552
19.52 398.291412
19.54 397.457672
19.56 398.789917
19.58 397.176392
19.60 405.304626
19.62 400.515442
19.64 403.203125
19.66 392.794769
19.68 398.515961
19.70 397.567596
19.72 395.932617
19.74 390.386749
19.76 405.448059
19.78 411.76828
19.80 408.963409
19.82 399.951721
19.84 402.581635
19.86 415.286072
19.88 414.073639
19.90 400.886627
19.92 396.783051
19.94 401.498444
19.96 416.074188
19.98 416.642914
20.00 410.663116
20.02 400.668762
20.04 393.899658
20.06 403.867126
20.08 391.655609
20.10 401.581909
20.12 414.041077
20.14 420.578552
20.16 408.813934
20.18 414.132507
20.20 416.282776
20.22 421.723053
20.24 415.303192
20.26 422.002808
20.28 440.872375
20.30 442.541107
20.32 419.019562
20.34 425.294556
20.36 440.285248
20.38 422.975525
20.40 410.841614
20.42 422.419128
20.44 429.087158
20.46 420.051117
20.48 411.202087
20.50 422.697601
20.52 424.75
20.54 440.596313
20.56 429.210297
20.58 425.748291
20.60 428.106201
20.62 423.199585
20.64 422.449982
20.66 422.455292
20.68 425.719055
20.70 453.771606
20.72 447.527893
20.74 439.815796
20.76 436.250183
20.78 437.380402
20.80 442.64975
20.82 445.518372
20.84 451.529083
20.86 455.62027
20.88 439.630798
20.90 434.689514
20.92 454.246063
20.94 459.272217
20.96 453.04715
20.98 461.217346
21.00 475.177032
21.02 470.455353
21.04 485.626709
21.06 469.133331
21.08 467.948578
21.10 457.741394
21.12 455.153931
21.14 455.466705
21.16 458.869141
21.18 461.468231
21.20 469.104706
21.22 487.393799
21.24 501.763458
21.26 487.22171
21.28 475.337708
21.30 487.531921
21.32 490.856232
21.34 500.567383
21.36 484.269531
21.38 488.961761
21.40 507.754456
21.42 515.224243
21.44 518.062866
21.46 495.832581
21.48 491.932129
21.50 511.982452
21.52 531.950806
21.54 533.214172
21.56 537.29187
21.58 539.34137
21.60 512.951355
21.62 532.723999
21.64 537.355164
21.66 545.507141
21.68 554.578247
21.70 563.247559
21.72 557.917358
21.74 532.426636
21.76 528.474121
21.78 539.182373
21.80 535.049194
21.82 533.836609
21.84 533.171936
21.86 542.051025
21.88 533.128174
21.90 548.99054
21.92 542.403137
21.94 532.559875
21.96 554.659424
21.98 541.795898
22.00 534.003601
22.02 543.671631
22.04 539.592102
22.06 533.552734
22.08 525.514587
22.10 524.864929
22.12 519.057312
22.14 505.457733
22.16 502.523621
22.18 525.133118
22.20 529.461609
22.22 522.779907
22.24 521.085938
22.26 511.829315
22.28 521.911499
22.30 543.069153
22.32 526.872009
22.34 516.221863
22.36 502.669678
22.38 509.665283
22.40 509.601959
22.42 502.188293
22.44 500.482574
22.46 505.892914
22.48 506.612122
22.50 515.214844
22.52 523.097839
22.54 515.395142
22.56 505.925629
22.58 509.02655
22.60 523.018433
22.62 526.277954
22.64 516.542908
22.66 510.145721
22.68 501.652039
22.70 518.956421
22.72 510.864349
22.74 506.856354
22.76 514.907959
22.78 513.999878
22.80 498.81778
22.82 497.722382
22.84 509.249359
22.86 519.269897
22.88 525.776184
22.90 523.521423
22.92 524.125916
22.94 520.236816
22.96 515.276184
22.98 521.832642
23.00 517.159119
23.02 528.894226
23.04 532.007385
23.06 526.913391
23.08 532.027039
23.10 536.478455
23.12 526.657471
23.14 512.622253
23.16 509.450867
23.18 503.109924
23.20 519.277039
23.22 528.208862
23.24 527.130554
23.26 539.63324
23.28 538.635742
23.30 523.794861
23.32 528.56427
23.34 526.36438
23.36 517.128784
23.38 528.384094
23.40 538.77832
23.42 532.456238
23.44 532.0755
23.46 526.670166
23.48 520.792603
23.50 534.426331
23.52 529.759766
23.54 524.858887
23.56 506.202911
23.58 512.539307
23.60 522.652527
23.62 515.412659
23.64 539.229065
23.66 540.006531
23.68 535.830933
23.70 531.517151
23.72 525.748413
23.74 530.139832
23.76 533.526794
23.78 539.10321
23.80 527.193542
23.82 537.366394
23.84 519.755127
23.86 521.063538
23.88 523.910889
23.90 532.424866
23.92 532.351563
23.94 519.5271
23.96 524.800842
23.98 543.697266
24.00 546.246582
24.02 532.111023
24.04 558.845764
24.06 548.944092
24.08 545.672607
24.10 525.089417
24.12 539.770325
24.14 545.362732
24.16 538.985657
24.18 537.498962
24.20 536.190613
24.22 530.988586
24.24 545.127686
24.26 548.105347
24.28 567.112793
24.30 572.977173
24.32 560.662598
24.34 532.320862
24.36 532.637268
24.38 531.498657
24.40 555.214783
24.42 557.77063
24.44 539.466797
24.46 543.672363
24.48 550.367554
24.50 558.989075
24.52 544.467224
24.54 538.387756
24.56 527.915405
24.58 527.182007
24.60 533.263245
24.62 536.214966
24.64 543.017151
24.66 544.730835
24.68 537.000122
24.70 542.374451
24.72 531.424255
24.74 539.355469
24.76 551.573669
24.78 546.284668
24.80 530.651489
24.82 522.554688
24.84 528.542786
24.86 540.842468
24.88 541.660522
24.90 547.340271
24.92 549.983582
24.94 555.382019
24.96 562.297363
24.98 560.394958
25.00 555.118958
25.02 538.183899
25.04 546.884155
25.06 551.417908
25.08 545.787842
25.10 557.73877
25.12 557.00354
25.14 542.723389
25.16 536.063477
25.18 535.544739
25.20 546.656494
25.22 551.226135
25.24 550.91333
25.26 537.855469
25.28 552.115601
25.30 536.609192
25.32 544.068481
25.34 547.675842
25.36 547.982666
25.38 524.436523
25.40 529.975098
25.42 547.896484
25.44 549.511108
25.46 543.344849
25.48 530.90332
25.50 539.818909
25.52 534.594482
25.54 529.166748
25.56 531.122803
25.58 540.702026
25.60 560.968079
25.62 563.610291
25.64 557.650452
25.66 554.806519
25.68 550.831421
25.70 551.93103
25.72 548.02533
25.74 547.440186
25.76 538.906677
25.78 532.812195
25.80 550.269043
25.82 546.722717
25.84 545.279602
25.86 545.892822
25.88 552.20575
25.90 543.1698
25.92 530.541138
25.94 546.414551
25.96 555.306702
25.98 556.299011
26.00 547.994446
26.02 541.170471
26.04 557.239624
26.06 560.803955
26.08 539.37738
26.10 537.303162
26.12 544.535522
26.14 549.830627
26.16 547.779846
26.18 549.817017
26.20 550.079712
26.22 556.741882
26.24 555.431885
26.26 544.145081
26.28 535.213623
26.30 529.983154
26.32 543.270386
26.34 545.126953
26.36 554.560669
26.38 561.786499
26.40 545.729126
26.42 539.466614
26.44 523.97699
26.46 529.706787
26.48 551.178467
26.50 555.959229
26.52 540.48053
26.54 543.818787
26.56 543.890686
26.58 544.217651
26.60 544.675781
26.62 544.375549
26.64 544.282776
26.66 551.478149
26.68 558.260925
26.70 561.527405
26.72 563.17041
26.74 557.869751
26.76 559.046021
26.78 551.247192
26.80 539.232849
26.82 529.295105
26.84 539.774597
26.86 557.403198
26.88 547.973999
26.90 540.805237
26.92 544.890747
26.94 535.310486
26.96 533.524536
26.98 545.793152
27.00 552.990784
27.02 536.576294
27.04 533.69397
27.06 541.372375
27.08 561.832031
27.10 554.464783
27.12 543.921692
27.14 540.550781
27.16 544.517578
27.18 539.779114
27.20 522.478943
27.22 529.612061
27.24 536.375916
27.26 524.206665
27.28 523.800781
27.30 546.07605
27.32 545.426331
27.34 543.310242
27.36 537.004272
27.38 549.071838
27.40 544.908875
27.42 535.959534
27.44 545.861755
27.46 543.482849
27.48 543.219849
27.50 542.39386
27.52 537.81781
27.54 534.164795
27.56 535.362915
27.58 533.15332
27.60 536.209412
27.62 557.30249
27.64 563.330078
27.66 554.537842
27.68 539.651428
27.70 533.292908
27.72 535.437195
27.74 534.735291
27.76 527.840515
27.78 529.567749
27.80 531.313293
27.82 544.956726
27.84 535.44519
27.86 524.013123
27.88 524.352417
27.90 528.751221
27.92 548.176575
27.94 541.863159
27.96 542.114258
27.98 545.738525
28.00 545.374084
28.02 540.083923
28.04 535.73877
28.06 544.62323
28.08 543.4021
28.10 535.364136
28.12 526.150146
28.14 520.775513
28.16 525.4422
28.18 541.108398
28.20 532.755432
28.22 528.851318
28.24 540.957336
28.26 537.472229
28.28 531.834106
28.30 537.506531
28.32 546.685059
28.34 549.157593
28.36 538.409302
28.38 535.398743
28.40 558.910156
28.42 538.661255
28.44 515.604248
28.46 541.829163
28.48 528.630432
28.50 537.911865
28.52 541.817322
28.54 529.193359
28.56 517.449646
28.58 515.694458
28.60 529.64978
28.62 539.164368
28.64 537.492737
28.66 524.107239
28.68 526.402283
28.70 524.347229
28.72 531.170044
28.74 526.635193
28.76 520.799438
28.78 516.942139
28.80 536.37439
28.82 539.527954
28.84 530.737061
28.86 534.662048
28.88 524.712769
28.90 529.236023
28.92 539.897949
28.94 541.589478
28.96 529.611816
28.98 517.69873
29.00 530.263123
29.02 549.128418
29.04 543.805664
29.06 523.29718
29.08 513.681702
29.10 530.116638
29.12 523.505005
29.14 527.834412
29.16 534.422791
29.18 523.726929
29.20 519.349121
29.22 517.95575
29.24 509.427277
29.26 519.891602
29.28 530.19458
29.30 515.966003
29.32 518.591125
29.34 517.711182
29.36 505.997955
29.38 516.918945
29.40 521.418274
29.42 522.650085
29.44 528.779785
29.46 527.863892
29.48 511.713531
29.50 517.133301
29.52 510.803284
29.54 500.247711
29.56 497.350616
29.58 491.938263
29.60 515.943604
29.62 512.964172
29.64 504.807404
29.66 509.660492
29.68 513.036865
29.70 516.667114
29.72 505.174652
29.74 516.321045
29.76 513.253479
29.78 506.212189
29.80 505.932678
29.82 492.390778
29.84 506.589325
29.86 496.905914
29.88 490.113159
29.90 516.399292
29.92 518.271667
29.94 508.178833
29.96 518.213806
29.98 511.809448
30.00 512.099182
30.02 503.258972
30.04 510.951904
30.06 495.731384
30.08 479.59436
30.10 484.306519
30.12 498.886353
30.14 514.11615
30.16 505.510803
30.18 505.008179
30.20 507.294434
30.22 510.776367
30.24 497.318085
30.26 496.838715
30.28 493.325012
30.30 479.983765
30.32 489.364777
30.34 495.497253
30.36 480.929047
30.38 481.827271
30.40 481.363342
30.42 483.276733
30.44 500.040558
30.46 513.415466
30.48 505.824402
30.50 510.112579
30.52 496.553406
30.54 470.955841
30.56 482.274475
30.58 491.483063
30.60 493.840546
30.62 494.512939
30.64 495.151428
30.66 493.257477
30.68 489.915131
30.70 485.439972
30.72 488.66864
30.74 486.668274
30.76 500.447571
30.78 488.498566
30.80 487.937439
30.82 501.862732
30.84 502.528259
30.86 487.543274
30.88 484.982452
30.90 471.931061
30.92 470.106873
30.94 474.892914
30.96 491.415131
30.98 484.191437
31.00 485.989899
31.02 477.488159
31.04 477.214142
31.06 478.010681
31.08 480.508087
31.10 486.501099
31.12 483.146301
31.14 483.474518
31.16 478.258484
31.18 466.301147
31.20 468.598755
31.22 478.252472
31.24 478.965271
31.26 461.440857
31.28 462.906433
31.30 470.485016
31.32 470.781952
31.34 479.301453
31.36 468.774902
31.38 463.563324
31.40 469.47934
31.42 479.822784
31.44 478.390686
31.46 474.037842
31.48 459.292297
31.50 453.289093
31.52 454.495483
31.54 452.220642
31.56 467.21875
31.58 468.458496
31.60 452.273438
31.62 448.856293
31.64 449.875336
31.66 441.964569
31.68 439.692596
31.70 435.980377
31.72 434.974365
31.74 452.117798
31.76 449.544098
31.78 449.418091
31.80 450.276733
31.82 442.265778
31.84 437.17746
31.86 440.187317
31.88 449.165649
31.90 432.378937
31.92 432.413513
31.94 440.436188
31.96 449.781311
31.98 458.868195
32.00 460.195496
32.02 456.730255
32.04 443.639679
32.06 442.314911
32.08 439.459808
32.10 443.402679
32.12 448.992706
32.14 438.26239
32.16 432.756622
32.18 443.561737
32.20 442.354248
32.22 430.465393
32.24 441.135437
32.26 430.427673
32.28 434.388611
32.30 450.904846
32.32 437.635468
32.34 433.143921
32.36 432.724548
32.38 442.244354
32.40 448.468933
32.42 455.867218
32.44 461.394714
32.46 444.299866
32.48 445.267792
32.50 451.568481
32.52 440.174164
32.54 442.088013
32.56 446.176117
32.58 441.274231
32.60 439.144897
32.62 435.197784
32.64 427.639404
32.66 430.801239
32.68 436.661652
32.70 437.183167
32.72 438.147003
32.74 429.096619
32.76 424.88974
32.78 429.59433
32.80 435.029724
32.82 438.497406
32.84 442.788055
32.86 448.341888
32.88 432.361511
32.90 435.829926
32.92 424.713928
32.94 431.28125
32.96 438.480499
32.98 435.788147
33.00 430.894135
33.02 443.510773
33.04 438.298737
33.06 438.012726
33.08 431.999359
33.10 431.069366
33.12 436.560608
33.14 444.073944
33.16 426.27597
33.18 425.777649
33.20 422.796783
33.22 430.404053
33.24 435.360077
33.26 404.592743
33.28 417.164734
33.30 424.294159
33.32 429.050232
33.34 432.671173
33.36 431.451111
33.38 427.014404
33.40 420.370575
33.42 422.370239
33.44 420.212128
33.46 427.766571
33.48 428.306061
33.50 414.092377
33.52 420.803986
33.54 420.621765
33.56 415.394257
33.58 412.762695
33.60 412.353485
33.62 429.184784
33.64 425.093109
33.66 411.37738
33.68 422.55072
33.70 425.871429
33.72 430.741852
33.74 431.713379
33.76 432.914642
33.78 426.89566
33.80 405.330322
33.82 419.151184
33.84 418.885742
33.86 421.460449
33.88 431.008484
33.90 435.502625
33.92 419.042023
33.94 410.220551
33.96 416.128723
33.98 425.539276
34.00 414.804718
34.02 425.453125
34.04 421.583405
34.06 419.456299
34.08 418.858856
34.10 435.954742
34.12 432.909332
34.14 430.849823
34.16 419.353821
34.18 421.563141
34.20 417.40506
34.22 421.125336
34.24 432.536621
34.26 411.754791
34.28 421.175079
34.30 425.07251
34.32 425.536316
34.34 435.797241
34.36 436.991425
34.38 442.675873
34.40 446.32428
34.42 423.959473
34.44 435.236908
34.46 440.78598
34.48 447.156433
34.50 447.165161
34.52 442.574371
34.54 447.95755
34.56 445.093353
34.58 453.530945
34.60 455.495483
34.62 455.559601
34.64 483.007172
34.66 499.488983
34.68 485.486389
34.70 476.166473
34.72 480.726898
34.74 497.331238
34.76 508.149048
34.78 495.950409
34.80 488.76886
34.82 488.537018
34.84 490.247406
34.86 477.373718
34.88 485.922333
34.90 499.124268
34.92 521.187988
34.94 510.03186
34.96 498.078583
34.98 508.868591
35.00 499.649261
35.02 504.412842
35.04 505.987762
35.06 497.339539
35.08 492.733856
35.10 495.407745
35.12 497.803009
35.14 490.343872
35.16 499.414856
35.18 494.335846
35.20 486.001831
35.22 477.632294
35.24 468.985077
35.26 469.900909
35.28 457.290222
35.30 448.924133
35.32 445.074951
35.34 432.444702
35.36 435.96225
35.38 433.889313
35.40 437.854462
35.42 437.951111
35.44 435.902008
35.46 419.839233
35.48 398.549683
35.50 390.078125
35.52 396.402649
35.54 400.658386
35.56 406.516846
35.58 405.534607
35.60 408.128265
35.62 391.876251
35.64 389.94281
35.66 387.785645
35.68 383.548065
35.70 385.471436
35.72 381.347992
35.74 372.470825
35.76 378.225739
35.78 395.606049
35.80 391.630737
35.82 381.448517
35.84 373.819092
35.86 378.185669
35.88 379.400848
35.90 372.499237
35.92 370.636047
35.94 370.635498
35.96 365.387878
35.98 376.742218
36.00 366.668854
36.02 373.895538
36.04 367.684296
36.06 368.241913
36.08 358.048737
36.10 360.204193
36.12 369.826324
36.14 378.489563
36.16 365.462097
36.18 359.404694
36.20 352.450714
36.22 335.631927
36.24 340.338135
36.26 351.560547
36.28 353.983704
36.30 341.325409
36.32 350.612671
36.34 363.551147
36.36 360.366028
36.38 356.560547
36.40 343.349609
36.42 351.222748
36.44 343.867615
36.46 340.309296
36.48 346.841827
36.50 344.327789
36.52 337.993866
36.54 343.674683
36.56 339.338257
36.58 342.403473
36.60 344.316132
36.62 346.600464
36.64 347.733856
36.66 342.145813
36.68 345.656586
36.70 346.03894
36.72 349.009796
36.74 338.16806
36.76 346.708313
36.78 337.799835
36.80 343.01947
36.82 336.854095
36.84 334.313293
36.86 342.266479
36.88 341.676483
36.90 343.073761
36.92 337.535767
36.94 342.736481
36.96 337.306
36.98 343.202881
37.00 341.872589
37.02 346.559906
37.04 337.870575
37.06 329.652283
37.08 326.644775
37.10 320.277863
37.12 318.749329
37.14 328.158386
37.16 346.648132
37.18 353.591675
37.20 325.788635
37.22 323.228668
37.24 328.837463
37.26 336.038116
37.28 339.977661
37.30 325.474518
37.32 314.834381
37.34 307.776398
37.36 330.993866
37.38 325.949188
37.40 310.555603
37.42 306.04953
37.44 315.636475
37.46 324.014282
37.48 328.000061
37.50 330.23114
37.52 322.217987
37.54 312.553497
37.56 315.954224
37.58 316.130676
37.60 315.317169
37.62 317.4711
37.64 313.347778
37.66 324.107117
37.68 323.243134
37.70 313.549255
37.72 322.925964
37.74 324.183136
37.76 325.824829
37.78 327.865692
37.80 332.503387
37.82 340.785034
37.84 333.094299
37.86 347.646027
37.88 345.222565
37.90 333.897217
37.92 319.94043
37.94 328.982971
37.96 337.656555
37.98 339.306
38.00 340.970642
38.02 339.07074
38.04 320.934784
38.06 323.975983
38.08 334.683197
38.10 335.181671
38.12 329.498657
38.14 320.298889
38.16 319.676086
38.18 327.707581
38.20 337.306458
38.22 333.425415
38.24 347.592346
38.26 343.86557
38.28 333.907898
38.30 327.803986
38.32 326.449371
38.34 329.973175
38.36 334.739166
38.38 316.678589
38.40 301.338348
38.42 308.619812
38.44 322.85849
38.46 328.67807
38.48 319.704407
38.50 329.870026
38.52 304.933777
38.54 316.155762
38.56 321.657745
38.58 334.78598
38.60 331.012115
38.62 317.789276
38.64 304.126251
38.66 302.291168
38.68 311.581482
38.70 316.71637
38.72 312.857056
38.74 295.694794
38.76 291.654083
38.78 301.781525
38.80 321.259979
38.82 305.112244
38.84 294.701111
38.86 297.203979
38.88 298.578766
38.90 291.873169
38.92 280.515961
38.94 277.570343
38.96 287.237701
38.98 294.852081
39.00 289.208405
39.02 282.533661
39.04 290.436584
39.06 299.014343
39.08 286.549286
39.10 284.180969
39.12 290.838715
39.14 290.883148
39.16 290.715973
39.18 282.431458
39.20 265.716919
39.22 278.373077
39.24 274.608337
39.26 285.851593
39.28 289.076447
39.30 291.735718
39.32 274.608368
39.34 273.386902
39.36 284.193848
39.38 286.301575
39.40 284.101715
39.42 286.988342
39.44 280.047485
39.46 270.93576
39.48 262.149628
39.50 263.399231
39.52 262.602417
39.54 270.154144
39.56 271.070374
39.58 266.346649
39.60 266.103729
39.62 270.860779
39.64 275.703644
39.66 270.824341
39.68 266.596191
39.70 274.360901
39.72 267.754272
39.74 253.351151
39.76 265.569336
39.78 266.291199
39.80 250.468216
39.82 263.588348
39.84 267.214233
39.86 262.825134
39.88 260.647064
39.90 257.7966
39.92 267.406586
39.94 269.690369
39.96 254.818726
39.98 245.022491
40.00 248.417709
