!@!!GADDS PLOTSO FILE: Chi integration type
!@!!Title/SampleName: ML_MAPbX3
!@!!User: NREL
!@!!Site: NREL SERF C211; SN 2510
!@!!Frame: 081022_MLProject_000_014.gfrm
!@!!Wavelengths    1.54184   1.54056   1.54439
!@!!Frame angles: 2Theta: 28.000 Omega: 5.000 Phi: 0.000 Chi: 90.000
!@!!Integration range: 2Theta: 10.000 to 40.000  Gamma: -135.000 to -45.000
!@!!Integration method: bin normalized
!@!N
!@!SS
!@!M
!@!L 0.0 0.0 0.0 0.0
!@!XDegrees
!@!YCounts
10.00 202.929764
10.02 190.521744
10.04 183.375
10.06 197.72081
10.08 205.206619
10.10 197.042145
10.12 186.309174
10.14 191.783646
10.16 188.844482
10.18 190.619797
10.20 192.090042
10.22 197.278122
10.24 196.670074
10.26 211.673874
10.28 202.925095
10.30 206.826096
10.32 206.651932
10.34 201.384384
10.36 191.775848
10.38 186.93454
10.40 190.840881
10.42 193.650131
10.44 196.5457
10.46 210.108154
10.48 210.340607
10.50 211.666779
10.52 206.330795
10.54 217.881836
10.56 203.865524
10.58 203.433548
10.60 198.764221
10.62 209.296021
10.64 220.169678
10.66 221.711334
10.68 215.126892
10.70 211.575607
10.72 210.049408
10.74 212.602814
10.76 211.671463
10.78 210.797195
10.80 220.609497
10.82 216.493347
10.84 213.3311
10.86 215.044846
10.88 210.310852
10.90 219.277481
10.92 218.839859
10.94 215.90567
10.96 220.589859
10.98 224.771286
11.00 219.122711
11.02 221.883118
11.04 219.107056
11.06 220.542358
11.08 212.320953
11.10 214.129105
11.12 226.347427
11.14 222.739807
11.16 221.547562
11.18 226.720123
11.20 226.608734
11.22 225.905746
11.24 229.549652
11.26 228.15979
11.28 227.595734
11.30 231.689011
11.32 229.241562
11.34 229.362518
11.36 234.957626
11.38 234.721497
11.40 234.243195
11.42 237.169952
11.44 230.566879
11.46 234.405319
11.48 239.316315
11.50 233.195114
11.52 240.459213
11.54 230.03595
11.56 235.209839
11.58 234.046402
11.60 236.182632
11.62 245.019455
11.64 243.075241
11.66 243.053635
11.68 238.898926
11.70 238.314163
11.72 245.87326
11.74 245.76149
11.76 249.663116
11.78 245.914368
11.80 243.456512
11.82 241.866302
11.84 236.076279
11.86 234.91243
11.88 243.608765
11.90 243.00975
11.92 251.381577
11.94 253.293961
11.96 255.067657
11.98 243.27713
12.00 247.616501
12.02 249.54303
12.04 251.874817
12.06 248.573059
12.08 260.48526
12.10 266.490936
12.12 267.392548
12.14 268.975708
12.16 266.50354
12.18 267.049225
12.20 258.230499
12.22 266.29184
12.24 266.040894
12.26 268.716156
12.28 263.08551
12.30 267.865417
12.32 266.034027
12.34 274.325714
12.36 279.286194
12.38 284.588318
12.40 298.101959
12.42 288.778046
12.44 288.155792
12.46 286.922028
12.48 285.140289
12.50 282.783752
12.52 286.749512
12.54 288.596619
12.56 298.205017
12.58 300.550354
12.60 295.754211
12.62 285.032715
12.64 298.381287
12.66 307.015167
12.68 296.394531
12.70 302.16037
12.72 301.996216
12.74 295.979126
12.76 286.256775
12.78 283.64563
12.80 293.03714
12.82 293.067383
12.84 297.66626
12.86 286.658478
12.88 284.02594
12.90 282.974487
12.92 276.149475
12.94 273.565765
12.96 275.037109
12.98 270.297363
13.00 273.151733
13.02 262.551758
13.04 263.384796
13.06 274.362366
13.08 264.502228
13.10 271.291443
13.12 277.918671
13.14 282.938171
13.16 275.925598
13.18 260.601105
13.20 264.600037
13.22 267.095917
13.24 273.517548
13.26 265.111206
13.28 262.256897
13.30 276.263855
13.32 275.426025
13.34 274.310974
13.36 276.139191
13.38 273.923523
13.40 278.392151
13.42 282.332825
13.44 278.553131
13.46 280.307892
13.48 275.206238
13.50 277.115082
13.52 284.287903
13.54 278.948608
13.56 274.559082
13.58 288.180939
13.60 288.956482
13.62 284.570007
13.64 285.610596
13.66 287.731079
13.68 289.926636
13.70 288.437134
13.72 290.002289
13.74 293.782257
13.76 303.12674
13.78 297.433289
13.80 302.163452
13.82 307.359833
13.84 306.600464
13.86 299.707062
13.88 309.091492
13.90 320.877167
13.92 318.016388
13.94 322.80899
13.96 324.948181
13.98 331.728485
14.00 336.509827
14.02 341.777008
14.04 341.511169
14.06 353.760376
14.08 360.188568
14.10 352.351837
14.12 358.626007
14.14 367.523193
14.16 375.449738
14.18 382.826324
14.20 385.56189
14.22 385.565002
14.24 377.725922
14.26 376.882599
14.28 374.739594
14.30 381.996735
14.32 375.00885
14.34 373.171631
14.36 375.793915
14.38 367.773132
14.40 350.908569
14.42 350.385651
14.44 351.362762
14.46 347.132721
14.48 351.578461
14.50 337.279144
14.52 344.837555
14.54 336.506744
14.56 337.904449
14.58 331.681183
14.60 331.295166
14.62 325.143433
14.64 328.252533
14.66 323.497589
14.68 324.542603
14.70 333.836273
14.72 330.84848
14.74 331.070282
14.76 331.719971
14.78 339.69101
14.80 347.896301
14.82 351.093994
14.84 350.0401
14.86 349.337402
14.88 356.047943
14.90 360.177368
14.92 363.228699
14.94 368.685974
14.96 371.401733
14.98 374.857513
15.00 386.29425
15.02 385.168671
15.04 391.966583
15.06 399.953705
15.08 419.763794
15.10 424.522217
15.12 431.724487
15.14 437.328857
15.16 436.545319
15.18 446.244446
15.20 444.280518
15.22 455.510315
15.24 459.500702
15.26 463.161987
15.28 460.549347
15.30 457.013794
15.32 469.592987
15.34 459.344086
15.36 448.00415
15.38 440.025299
15.40 437.257294
15.42 436.411774
15.44 426.179291
15.46 407.68927
15.48 402.420349
15.50 390.33374
15.52 386.480988
15.54 373.223297
15.56 367.935577
15.58 354.054474
15.60 346.571198
15.62 346.037109
15.64 343.485413
15.66 337.059357
15.68 333.506226
15.70 330.057861
15.72 332.030334
15.74 332.798737
15.76 329.205933
15.78 326.430298
15.80 329.391785
15.82 331.165863
15.84 326.512543
15.86 321.321838
15.88 325.391724
15.90 327.807739
15.92 324.416351
15.94 325.078156
15.96 327.696899
15.98 322.692139
16.00 318.136353
16.02 319.36731
16.04 319.730896
16.06 327.148224
16.08 325.658112
16.10 324.529968
16.12 324.093475
16.14 322.614838
16.16 323.671265
16.18 321.28299
16.20 323.466431
16.22 325.226532
16.24 327.742371
16.26 328.739075
16.28 327.470215
16.30 325.829529
16.32 326.574158
16.34 323.641235
16.36 319.044037
16.38 329.249603
16.40 331.522247
16.42 329.23175
16.44 330.14093
16.46 325.040741
16.48 326.145782
16.50 335.239685
16.52 334.319855
16.54 322.442902
16.56 323.201294
16.58 324.881134
16.60 329.994995
16.62 329.359039
16.64 334.321136
16.66 336.073853
16.68 327.682159
16.70 334.821869
16.72 330.736328
16.74 327.868011
16.76 327.126831
16.78 338.562561
16.80 344.416046
16.82 346.795776
16.84 338.051514
16.86 343.475037
16.88 349.690582
16.90 342.349152
16.92 330.59256
16.94 339.465363
16.96 339.656525
16.98 339.79776
17.00 344.239716
17.02 343.329346
17.04 342.651764
17.06 348.159485
17.08 343.918121
17.10 339.882599
17.12 350.657501
17.14 342.293091
17.16 339.104706
17.18 349.210449
17.20 347.444397
17.22 344.787598
17.24 346.287933
17.26 345.403137
17.28 350.522461
17.30 351.035522
17.32 354.254425
17.34 352.045929
17.36 349.887909
17.38 352.892578
17.40 349.968597
17.42 343.708405
17.44 348.360504
17.46 354.97049
17.48 351.387299
17.50 351.452301
17.52 358.279602
17.54 347.76413
17.56 362.223877
17.58 366.456848
17.60 361.899689
17.62 364.359436
17.64 364.086426
17.66 367.756775
17.68 364.302032
17.70 360.610046
17.72 362.193848
17.74 363.150665
17.76 357.185608
17.78 360.970978
17.80 371.862762
17.82 369.986725
17.84 364.436859
17.86 365.640015
17.88 362.32196
17.90 371.245148
17.92 368.729675
17.94 362.556183
17.96 360.201141
17.98 360.749786
18.00 370.975525
18.02 381.079163
18.04 379.506378
18.06 372.971558
18.08 368.430603
18.10 362.049652
18.12 370.480957
18.14 378.01416
18.16 369.393921
18.18 379.353912
18.20 380.433014
18.22 379.529724
18.24 374.875488
18.26 376.958862
18.28 377.550934
18.30 380.320129
18.32 380.122772
18.34 382.002747
18.36 387.733673
18.38 392.973755
18.40 376.122559
18.42 384.257965
18.44 390.689514
18.46 387.752319
18.48 397.090668
18.50 402.473267
18.52 403.596008
18.54 390.984863
18.56 387.959625
18.58 391.75177
18.60 398.132721
18.62 400.667114
18.64 399.538177
18.66 394.857361
18.68 390.492523
18.70 396.034973
18.72 399.496552
18.74 399.517395
18.76 393.524048
18.78 396.64856
18.80 397.865326
18.82 397.296448
18.84 398.97403
18.86 397.064911
18.88 403.784912
18.90 408.181427
18.92 409.313873
18.94 404.814972
18.96 406.032562
18.98 422.989777
19.00 419.181702
19.02 415.37204
19.04 411.65863
19.06 411.218231
19.08 404.362366
19.10 420.667236
19.12 427.510529
19.14 411.144012
19.16 416.742706
19.18 415.486267
19.20 416.432739
19.22 423.991425
19.24 418.554504
19.26 420.856262
19.28 418.243958
19.30 422.930725
19.32 424.487579
19.34 420.851746
19.36 428.882813
19.38 438.249878
19.40 436.862854
19.42 434.535004
19.44 432.131653
19.46 434.24704
19.48 439.41861
19.50 430.073151
19.52 430.718079
19.54 434.206146
19.56 438.17215
19.58 433.771698
19.60 435.864197
19.62 441.397491
19.64 440.174622
19.66 440.080841
19.68 441.795197
19.70 441.861511
19.72 443.394409
19.74 444.885345
19.76 440.663025
19.78 443.798889
19.80 451.633759
19.82 450.420166
19.84 440.75473
19.86 445.501526
19.88 456.263855
19.90 457.493927
19.92 457.13327
19.94 457.184326
19.96 462.022552
19.98 463.693085
20.00 457.107147
20.02 456.728973
20.04 449.050964
20.06 461.672699
20.08 461.978241
20.10 453.609497
20.12 454.716492
20.14 468.915558
20.16 468.454773
20.18 476.75296
20.20 471.225403
20.22 464.445923
20.24 470.55307
20.26 469.799103
20.28 475.997833
20.30 469.580048
20.32 471.962921
20.34 476.651031
20.36 472.494171
20.38 484.86441
20.40 482.692535
20.42 487.182098
20.44 484.3638
20.46 477.677338
20.48 486.448425
20.50 484.802979
20.52 482.676422
20.54 472.705444
20.56 479.453735
20.58 481.132324
20.60 484.114685
20.62 481.356537
20.64 482.030334
20.66 479.835907
20.68 482.701874
20.70 495.156921
20.72 488.893036
20.74 480.899994
20.76 486.658813
20.78 493.420685
20.80 490.354858
20.82 492.790283
20.84 499.916809
20.86 493.802185
20.88 487.431061
20.90 486.283386
20.92 490.420593
20.94 497.659576
20.96 499.7117
20.98 510.79892
21.00 505.519775
21.02 500.393127
21.04 493.970734
21.06 504.643524
21.08 503.134491
21.10 506.518829
21.12 504.391357
21.14 505.020935
21.16 510.09021
21.18 513.208191
21.20 516.341492
21.22 514.465454
21.24 518.230835
21.26 532.635376
21.28 531.569885
21.30 526.159424
21.32 529.815247
21.34 537.730591
21.36 538.858276
21.38 542.46759
21.40 544.519897
21.42 550.668457
21.44 549.158813
21.46 549.462341
21.48 539.022888
21.50 543.940735
21.52 546.876953
21.54 547.553406
21.56 551.099548
21.58 550.740234
21.60 559.677551
21.62 561.665039
21.64 562.019897
21.66 566.663147
21.68 561.666565
21.70 551.423584
21.72 560.815125
21.74 567.130188
21.76 559.023193
21.78 563.656189
21.80 573.047791
21.82 572.688782
21.84 569.345642
21.86 564.028625
21.88 563.276184
21.90 560.903381
21.92 556.73877
21.94 552.509827
21.96 559.863586
21.98 566.891418
22.00 563.089417
22.02 572.631531
22.04 573.515503
22.06 564.357788
22.08 562.537292
22.10 557.112305
22.12 555.600708
22.14 561.828064
22.16 565.735291
22.18 569.369324
22.20 561.182068
22.22 554.085938
22.24 550.986267
22.26 553.358521
22.28 556.001953
22.30 560.581238
22.32 571.018433
22.34 574.753052
22.36 559.926025
22.38 561.078735
22.40 552.661194
22.42 559.989136
22.44 561.579712
22.46 560.035461
22.48 569.782654
22.50 562.25061
22.52 565.629883
22.54 566.230408
22.56 571.126221
22.58 567.510559
22.60 572.231323
22.62 571.77887
22.64 572.207642
22.66 566.536377
22.68 569.262207
22.70 565.562988
22.72 568.017822
22.74 581.256897
22.76 587.897156
22.78 576.402954
22.80 567.561035
22.82 572.725647
22.84 582.320557
22.86 583.830566
22.88 588.515137
22.90 588.435791
22.92 577.503479
22.94 576.961792
22.96 589.066162
22.98 588.336487
23.00 588.225403
23.02 576.204895
23.04 579.639099
23.06 585.188293
23.08 584.689209
23.10 592.901428
23.12 592.800964
23.14 580.644043
23.16 591.883301
23.18 591.576477
23.20 588.419189
23.22 587.515564
23.24 596.108093
23.26 592.446838
23.28 584.219971
23.30 593.644592
23.32 591.60907
23.34 584.414001
23.36 593.625671
23.38 601.071899
23.40 596.314209
23.42 587.599854
23.44 594.352295
23.46 583.848389
23.48 591.644714
23.50 593.993652
23.52 580.101318
23.54 580.346924
23.56 582.072937
23.58 586.538818
23.60 594.937012
23.62 583.583313
23.64 587.820129
23.66 590.378479
23.68 608.066711
23.70 595.074158
23.72 591.806946
23.74 594.284668
23.76 598.740845
23.78 593.874817
23.80 594.809509
23.82 598.372314
23.84 590.819275
23.86 595.744324
23.88 599.278442
23.90 595.353699
23.92 584.424316
23.94 586.264893
23.96 598.934265
23.98 597.626465
24.00 601.744507
24.02 597.870544
24.04 596.282227
24.06 603.681702
24.08 602.794983
24.10 606.322021
24.12 607.932007
24.14 607.349365
24.16 607.749512
24.18 607.866577
24.20 601.92572
24.22 609.110291
24.24 609.596619
24.26 616.731934
24.28 602.048462
24.30 596.198547
24.32 608.93457
24.34 602.552063
24.36 592.807373
24.38 602.940491
24.40 610.724243
24.42 609.826843
24.44 602.446472
24.46 591.815674
24.48 600.240479
24.50 607.343506
24.52 604.047119
24.54 604.526611
24.56 604.726929
24.58 606.671326
24.60 601.069275
24.62 596.808899
24.64 607.179626
24.66 614.813843
24.68 612.832581
24.70 615.189575
24.72 617.094543
24.74 611.167358
24.76 602.510193
24.78 612.78241
24.80 615.107239
24.82 612.399658
24.84 622.974243
24.86 623.731934
24.88 624.29834
24.90 619.262878
24.92 611.104004
24.94 607.115662
24.96 611.355835
24.98 609.665894
25.00 621.258301
25.02 619.40979
25.04 619.819092
25.06 616.36438
25.08 609.881897
25.10 614.142822
25.12 611.915894
25.14 611.441345
25.16 619.78009
25.18 617.377625
25.20 617.547302
25.22 613.498169
25.24 612.112732
25.26 617.952576
25.28 614.8927
25.30 622.759583
25.32 621.506836
25.34 610.454834
25.36 606.389771
25.38 605.515808
25.40 614.85083
25.42 617.912048
25.44 625.479858
25.46 619.988953
25.48 607.991272
25.50 600.399841
25.52 611.780151
25.54 615.272156
25.56 611.665527
25.58 625.548645
25.60 622.545654
25.62 614.205444
25.64 605.579163
25.66 611.388428
25.68 620.271362
25.70 628.099976
25.72 623.771973
25.74 614.824219
25.76 605.112122
25.78 609.504395
25.80 614.075684
25.82 618.033752
25.84 624.303345
25.86 621.063538
25.88 614.433289
25.90 618.022583
25.92 618.512146
25.94 613.188904
25.96 607.540955
25.98 608.701111
26.00 613.715088
26.02 620.579651
26.04 622.778748
26.06 621.271545
26.08 619.447571
26.10 619.520447
26.12 614.413879
26.14 615.914368
26.16 616.113647
26.18 620.024536
26.20 615.039917
26.22 616.5047
26.24 616.19696
26.26 615.332031
26.28 613.496155
26.30 615.216309
26.32 608.389832
26.34 611.083069
26.36 615.280273
26.38 613.721802
26.40 614.979675
26.42 609.236389
26.44 608.006714
26.46 605.355652
26.48 614.706421
26.50 613.027527
26.52 604.088928
26.54 593.01178
26.56 601.42865
26.58 606.727539
26.60 619.119629
26.62 618.986084
26.64 605.837341
26.66 598.736389
26.68 603.546875
26.70 606.395569
26.72 600.324219
26.74 612.462585
26.76 612.549988
26.78 612.476013
26.80 617.319092
26.82 611.4729
26.84 606.208069
26.86 604.751953
26.88 608.6203
26.90 606.640503
26.92 605.399292
26.94 606.616272
26.96 605.736816
26.98 605.317261
27.00 599.128296
27.02 603.960999
27.04 608.957703
27.06 602.804321
27.08 592.617554
27.10 600.640625
27.12 611.760071
27.14 611.87439
27.16 605.235046
27.18 604.536438
27.20 602.78241
27.22 605.401733
27.24 607.864502
27.26 606.842041
27.28 605.391296
27.30 605.320618
27.32 601.545227
27.34 597.903687
27.36 606.240234
27.38 603.00647
27.40 594.216309
27.42 588.852051
27.44 592.345581
27.46 598.824524
27.48 601.267456
27.50 601.116394
27.52 611.074463
27.54 608.323547
27.56 605.964539
27.58 614.430542
27.60 612.348755
27.62 602.651001
27.64 600.324951
27.66 605.38324
27.68 602.919861
27.70 608.465454
27.72 614.835876
27.74 608.990845
27.76 598.815735
27.78 588.304688
27.80 591.030518
27.82 603.850952
27.84 597.819885
27.86 587.427002
27.88 589.256226
27.90 601.103088
27.92 603.932373
27.94 588.587036
27.96 591.185059
27.98 607.764221
28.00 603.359253
28.02 600.011108
28.04 598.837097
28.06 596.892212
28.08 599.300964
28.10 592.034485
28.12 595.407471
28.14 604.433838
28.16 606.752869
28.18 613.192871
28.20 608.823364
28.22 602.443604
28.24 607.227112
28.26 601.750427
28.28 598.899292
28.30 605.592834
28.32 608.171753
28.34 621.571289
28.36 615.54425
28.38 604.842407
28.40 600.654541
28.42 613.683167
28.44 615.332458
28.46 612.657104
28.48 615.164368
28.50 612.939758
28.52 606.215881
28.54 608.894043
28.56 621.282837
28.58 624.068787
28.60 630.148438
28.62 636.007507
28.64 637.778687
28.66 642.577332
28.68 639.955505
28.70 637.552979
28.72 635.26886
28.74 627.459473
28.76 631.603271
28.78 631.922363
28.80 631.150879
28.82 624.346375
28.84 632.323853
28.86 626.083801
28.88 618.14917
28.90 615.066833
28.92 614.578247
28.94 614.981689
28.96 618.881836
28.98 608.262268
29.00 611.674011
29.02 613.485352
29.04 601.885925
29.06 597.310974
29.08 604.171875
29.10 609.901001
29.12 601.507202
29.14 594.953064
29.16 588.892456
29.18 592.000305
29.20 587.949158
29.22 591.61969
29.24 590.822998
29.26 599.55188
29.28 587.954834
29.30 585.045837
29.32 590.213684
29.34 584.117737
29.36 578.575256
29.38 580.429688
29.40 579.188843
29.42 583.085999
29.44 584.019592
29.46 586.479309
29.48 579.641846
29.50 577.006897
29.52 575.495239
29.54 575.342041
29.56 577.93219
29.58 571.045776
29.60 574.42981
29.62 571.795898
29.64 573.712769
29.66 582.564819
29.68 586.010803
29.70 571.159912
29.72 557.91803
29.74 559.962402
29.76 558.515869
29.78 569.029053
29.80 572.549805
29.82 570.232483
29.84 558.736389
29.86 560.074097
29.88 562.879517
29.90 568.572205
29.92 566.648438
29.94 565.674377
29.96 564.277222
29.98 565.586914
30.00 559.169739
30.02 559.089478
30.04 558.081909
30.06 559.281921
30.08 565.858765
30.10 571.207092
30.12 564.717407
30.14 556.922607
30.16 569.174072
30.18 568.343262
30.20 557.431763
30.22 562.50708
30.24 557.974182
30.26 557.559082
30.28 562.793518
30.30 565.843567
30.32 565.316528
30.34 565.435425
30.36 568.602783
30.38 564.669861
30.40 559.800659
30.42 557.702942
30.44 551.224731
30.46 559.618958
30.48 564.859131
30.50 567.133484
30.52 577.207397
30.54 577.201965
30.56 574.303162
30.58 571.365906
30.60 579.478027
30.62 586.679565
30.64 579.932617
30.66 569.038879
30.68 565.355347
30.70 576.957275
30.72 581.499695
30.74 585.851013
30.76 590.675598
30.78 598.605103
30.80 595.917236
30.82 591.741211
30.84 593.757324
30.86 597.60321
30.88 598.814697
30.90 583.609802
30.92 582.64447
30.94 592.42572
30.96 595.07135
30.98 593.531372
31.00 592.603638
31.02 581.599182
31.04 581.816956
31.06 584.199402
31.08 572.834961
31.10 568.13678
31.12 565.670837
31.14 560.688293
31.16 560.34845
31.18 554.660889
31.20 551.51709
31.22 552.898193
31.24 543.008179
31.26 542.241638
31.28 544.064209
31.30 545.437561
31.32 538.027771
31.34 538.840027
31.36 534.973572
31.38 531.61969
31.40 523.521545
31.42 526.01355
31.44 531.463745
31.46 522.392883
31.48 528.866577
31.50 530.489258
31.52 528.096313
31.54 522.613586
31.56 517.227844
31.58 514.806885
31.60 513.669922
31.62 522.203735
31.64 520.993347
31.66 517.756775
31.68 521.621277
31.70 528.063904
31.72 523.947021
31.74 527.912842
31.76 520.457703
31.78 519.57489
31.80 521.492737
31.82 526.618652
31.84 528.505737
31.86 528.086548
31.88 520.514343
31.90 516.350952
31.92 516.66864
31.94 519.505493
31.96 522.211487
31.98 524.14093
32.00 529.761658
32.02 528.1922
32.04 521.838989
32.06 519.945557
32.08 528.643127
32.10 531.790283
32.12 521.682007
32.14 513.122192
32.16 516.701782
32.18 524.492065
32.20 520.056641
32.22 520.999939
32.24 522.016541
32.26 522.748779
32.28 519.152039
32.30 524.064697
32.32 522.866455
32.34 519.970947
32.36 522.069092
32.38 519.075928
32.40 519.21582
32.42 511.149506
32.44 513.734253
32.46 510.04187
32.48 505.859039
32.50 501.847321
32.52 509.738464
32.54 513.926453
32.56 514.20575
32.58 505.775208
32.60 504.062531
32.62 501.203888
32.64 497.403229
32.66 505.929138
32.68 508.398895
32.70 504.599152
32.72 500.23175
32.74 500.656097
32.76 491.516663
32.78 495.966766
32.80 498.84433
32.82 501.419434
32.84 500.99472
32.86 496.962036
32.88 489.827728
32.90 491.339783
32.92 497.58316
32.94 498.83139
32.96 490.605164
32.98 492.205688
33.00 489.957458
33.02 490.508881
33.04 486.636627
33.06 484.346497
33.08 487.084839
33.10 486.124268
33.12 475.39859
33.14 477.522888
33.16 482.720856
33.18 476.405121
33.20 468.268219
33.22 478.483521
33.24 478.92923
33.26 473.285645
33.28 479.436859
33.30 483.455933
33.32 481.953918
33.34 480.646271
33.36 475.14389
33.38 475.99585
33.40 475.35675
33.42 474.739105
33.44 479.467865
33.46 477.102356
33.48 477.009125
33.50 479.489899
33.52 478.291168
33.54 471.351471
33.56 471.893829
33.58 469.288422
33.60 475.260712
33.62 464.519714
33.64 456.959106
33.66 465.380676
33.68 469.636627
33.70 466.313873
33.72 478.35321
33.74 472.975067
33.76 469.703583
33.78 466.508209
33.80 463.266876
33.82 465.840118
33.84 469.243408
33.86 461.029449
33.88 459.607635
33.90 451.929138
33.92 459.164307
33.94 463.32608
33.96 465.279816
33.98 463.946625
34.00 460.502686
34.02 457.761017
34.04 461.531433
34.06 464.076874
34.08 464.09668
34.10 460.902832
34.12 464.420471
34.14 465.725983
34.16 461.761566
34.18 460.283295
34.20 457.917969
34.22 457.121399
34.24 470.154205
34.26 470.119141
34.28 464.881378
34.30 468.57431
34.32 470.398041
34.34 470.344574
34.36 479.179291
34.38 475.448029
34.40 473.46759
34.42 474.721558
34.44 472.697784
34.46 475.804413
34.48 477.988739
34.50 483.825043
34.52 482.699677
34.54 475.237549
34.56 480.635712
34.58 476.245972
34.60 472.354218
34.62 468.618195
34.64 473.410706
34.66 471.226715
34.68 465.26709
34.70 469.408997
34.72 466.600037
34.74 464.191071
34.76 470.350128
34.78 469.286194
34.80 464.212769
34.82 460.935242
34.84 466.886505
34.86 467.655426
34.88 462.576019
34.90 456.291687
34.92 458.987518
34.94 450.624451
34.96 448.751129
34.98 449.061584
35.00 439.478668
35.02 439.824677
35.04 450.105408
35.06 446.537842
35.08 439.08075
35.10 441.296783
35.12 444.024261
35.14 432.116241
35.16 430.586609
35.18 430.466919
35.20 435.120514
35.22 424.300049
35.24 428.089691
35.26 424.523499
35.28 417.400574
35.30 422.021027
35.32 425.166901
35.34 423.440735
35.36 416.247528
35.38 417.630829
35.40 416.235962
35.42 414.611938
35.44 418.880798
35.46 420.013214
35.48 413.368134
35.50 409.70636
35.52 405.850677
35.54 413.198212
35.56 411.820282
35.58 408.734406
35.60 407.127594
35.62 411.377899
35.64 419.242798
35.66 416.65744
35.68 407.046661
35.70 408.605225
35.72 406.723999
35.74 403.715332
35.76 404.821838
35.78 403.139618
35.80 410.405121
35.82 409.70636
35.84 400.44397
35.86 402.674805
35.88 398.378967
35.90 396.005219
35.92 391.068787
35.94 399.375
35.96 394.927002
35.98 401.168915
36.00 396.988037
36.02 395.418182
36.04 397.708008
36.06 399.403992
36.08 392.841553
36.10 391.104736
36.12 392.753754
36.14 390.483124
36.16 387.53183
36.18 393.020569
36.20 394.056824
36.22 385.516754
36.24 384.164368
36.26 385.896576
36.28 381.098328
36.30 382.502136
36.32 379.550751
36.34 386.087219
36.36 381.186829
36.38 383.268951
36.40 385.575745
36.42 379.850586
36.44 378.502136
36.46 371.22287
36.48 377.420929
36.50 383.364288
36.52 376.693817
36.54 373.710114
36.56 376.222809
36.58 381.527557
36.60 380.846222
36.62 378.744019
36.64 374.054108
36.66 373.851074
36.68 375.593689
36.70 372.354156
36.72 370.658752
36.74 376.523102
36.76 376.897003
36.78 372.181854
36.80 371.615753
36.82 373.57782
36.84 374.742035
36.86 374.100067
36.88 368.767059
36.90 368.501282
36.92 365.955353
36.94 371.621399
36.96 366.542694
36.98 362.265747
37.00 362.739777
37.02 365.470367
37.04 365.759247
37.06 367.953552
37.08 369.790497
37.10 364.38385
37.12 358.752747
37.14 358.726776
37.16 359.594513
37.18 360.189545
37.20 360.735962
37.22 365.915771
37.24 367.198944
37.26 359.937012
37.28 361.92746
37.30 361.26239
37.32 362.405762
37.34 358.171814
37.36 357.166565
37.38 357.621368
37.40 359.70343
37.42 360.058533
37.44 354.149872
37.46 352.441925
37.48 355.127625
37.50 357.651886
37.52 357.164948
37.54 352.733032
37.56 354.009369
37.58 353.516785
37.60 353.964478
37.62 344.759705
37.64 347.465485
37.66 358.162354
37.68 366.444824
37.70 358.389618
37.72 355.149445
37.74 351.502899
37.76 356.979797
37.78 355.579071
37.80 355.735107
37.82 351.137024
37.84 355.021667
37.86 355.225983
37.88 357.459381
37.90 355.783691
37.92 354.32663
37.94 355.030762
37.96 354.76358
37.98 351.382324
38.00 354.25943
38.02 360.294617
38.04 360.464935
38.06 350.379852
38.08 348.551544
38.10 355.336609
38.12 353.91806
38.14 345.349548
38.16 345.437927
38.18 342.585754
38.20 349.507233
38.22 349.806183
38.24 347.470764
38.26 339.109009
38.28 345.625854
38.30 344.241241
38.32 346.690735
38.34 350.182739
38.36 354.558105
38.38 340.684875
38.40 334.151855
38.42 340.552795
38.44 339.332886
38.46 338.496338
38.48 340.911926
38.50 343.809448
38.52 346.992432
38.54 339.386322
38.56 341.743866
38.58 336.929565
38.60 337.854004
38.62 336.058685
38.64 331.374878
38.66 334.060242
38.68 333.917725
38.70 334.875092
38.72 330.830658
38.74 334.722931
38.76 330.651276
38.78 329.20224
38.80 332.678375
38.82 333.925446
38.84 329.168243
38.86 333.649292
38.88 335.10321
38.90 334.461945
38.92 332.434814
38.94 329.316467
38.96 330.948334
38.98 325.8237
39.00 324.266052
39.02 324.533875
39.04 326.126373
39.06 325.308624
39.08 325.49588
39.10 325.980591
39.12 326.354797
39.14 332.008636
39.16 327.141083
39.18 329.316284
39.20 328.917542
39.22 324.418243
39.24 324.187225
39.26 334.508606
39.28 331.044128
39.30 334.499512
39.32 334.218964
39.34 330.301422
39.36 328.136688
39.38 322.21228
39.40 330.996124
39.42 328.745972
39.44 333.241455
39.46 330.623199
39.48 322.587341
39.50 325.017853
39.52 324.531708
39.54 323.946838
39.56 325.348602
39.58 327.695526
39.60 325.501495
39.62 329.165833
39.64 331.27124
39.66 326.22345
39.68 319.025665
39.70 319.926575
39.72 315.403381
39.74 315.336151
39.76 315.427979
39.78 316.42569
39.80 316.633118
39.82 316.902283
39.84 317.84549
39.86 314.498016
39.88 318.03833
39.90 314.748505
39.92 311.924805
39.94 313.519348
39.96 308.068848
39.98 308.335449
40.00 308.080444
