!@!!GADDS PLOTSO FILE: Chi integration type
!@!!Title/SampleName: ML_MAPbX3_chem2
!@!!User: NREL
!@!!Site: NREL SERF C211; SN 2510
!@!!Frame: C:\frames\rbelisle\MLProject\081022_MLProject_000_002.gfrm
!@!!Wavelengths    1.54184   1.54056   1.54439
!@!!Frame angles: 2Theta: 28.000 Omega: 5.000 Phi: 0.000 Chi: 90.000
!@!!Integration range: 2Theta: 10.000 to 40.000  Gamma: -130.000 to -50.000
!@!!Integration method: bin normalized
!@!N
!@!SS
!@!M
!@!L 0.0 0.0 0.0 0.0
!@!XDegrees
!@!YCounts
10.00 104.995293
10.02 102.538048
10.04 95.295006
10.06 94.235359
10.08 95.709549
10.10 104.012016
10.12 105.427383
10.14 98.352043
10.16 98.651764
10.18 103.604416
10.20 109.679756
10.22 100.426414
10.24 103.07518
10.26 106.375092
10.28 103.887238
10.30 103.262886
10.32 109.949646
10.34 109.611847
10.36 105.274986
10.38 98.441399
10.40 95.679665
10.42 103.346802
10.44 106.136375
10.46 108.739578
10.48 110.052055
10.50 113.488327
10.52 110.830826
10.54 109.205101
10.56 109.249855
10.58 107.285744
10.60 109.736572
10.62 112.342903
10.64 112.058258
10.66 107.487297
10.68 108.705002
10.70 104.504128
10.72 109.619507
10.74 101.850792
10.76 110.320236
10.78 115.219727
10.80 115.199745
10.82 113.516869
10.84 112.170509
10.86 112.266045
10.88 114.901474
10.90 109.167496
10.92 110.31472
10.94 115.967529
10.96 110.443031
10.98 109.827866
11.00 111.38562
11.02 116.645058
11.04 114.42778
11.06 114.161888
11.08 120.669296
11.10 115.055
11.12 111.994141
11.14 122.611656
11.16 117.57254
11.18 118.494011
11.20 115.473549
11.22 115.439552
11.24 114.151093
11.26 115.046822
11.28 116.111847
11.30 112.075249
11.32 116.38916
11.34 120.134247
11.36 122.590431
11.38 120.045189
11.40 123.175308
11.42 120.580521
11.44 124.062599
11.46 125.145592
11.48 121.011505
11.50 121.671791
11.52 126.471413
11.54 125.481964
11.56 127.329727
11.58 122.346085
11.60 119.41713
11.62 123.338684
11.64 125.939293
11.66 123.337273
11.68 124.639954
11.70 118.747749
11.72 122.875267
11.74 119.053505
11.76 119.966194
11.78 128.018036
11.80 126.891655
11.82 119.420914
11.84 128.675964
11.86 131.170837
11.88 124.109261
11.90 133.360519
11.92 134.34639
11.94 128.27977
11.96 123.048264
11.98 128.626358
12.00 124.720024
12.02 123.258644
12.04 124.480865
12.06 130.697845
12.08 132.958176
12.10 128.286621
12.12 123.267929
12.14 124.430069
12.16 129.548813
12.18 132.926514
12.20 132.196503
12.22 133.62056
12.24 136.010559
12.26 134.319
12.28 132.697556
12.30 139.440781
12.32 144.065414
12.34 142.323517
12.36 140.287018
12.38 138.739639
12.40 141.057571
12.42 147.761337
12.44 139.585602
12.46 141.341782
12.48 140.199326
12.50 142.72821
12.52 147.681198
12.54 145.415192
12.56 143.371033
12.58 145.724716
12.60 147.009277
12.62 145.102905
12.64 146.133728
12.66 151.19931
12.68 141.055496
12.70 147.569275
12.72 152.153091
12.74 142.148041
12.76 150.097229
12.78 145.629517
12.80 149.071915
12.82 148.306778
12.84 150.685333
12.86 144.467239
12.88 141.51561
12.90 137.808044
12.92 137.248001
12.94 136.915375
12.96 139.887665
12.98 139.307159
13.00 146.19519
13.02 147.306625
13.04 142.756393
13.06 148.393372
13.08 149.779236
13.10 144.459335
13.12 141.566925
13.14 142.114471
13.16 142.424515
13.18 139.479706
13.20 145.638519
13.22 146.999557
13.24 143.637466
13.26 144.498138
13.28 145.003784
13.30 148.530716
13.32 142.885986
13.34 145.277267
13.36 152.283554
13.38 148.406815
13.40 148.882919
13.42 158.290756
13.44 152.819733
13.46 150.59552
13.48 148.02211
13.50 152.199966
13.52 153.044952
13.54 146.990891
13.56 149.710922
13.58 149.074814
13.60 150.953751
13.62 159.61644
13.64 153.450134
13.66 158.304886
13.68 155.113953
13.70 158.26239
13.72 157.378174
13.74 160.125549
13.76 152.69902
13.78 155.737793
13.80 154.714951
13.82 150.777344
13.84 149.131607
13.86 151.441589
13.88 157.034286
13.90 157.569885
13.92 153.261597
13.94 148.701721
13.96 146.312164
13.98 155.131363
14.00 154.572403
14.02 152.814636
14.04 154.927826
14.06 153.879517
14.08 152.80307
14.10 153.607986
14.12 162.754211
14.14 162.226273
14.16 154.95433
14.18 163.437057
14.20 156.182236
14.22 157.030807
14.24 159.874741
14.26 159.686722
14.28 154.36235
14.30 151.47966
14.32 160.763565
14.34 162.436752
14.36 166.298447
14.38 160.32225
14.40 162.700089
14.42 164.452225
14.44 162.079575
14.46 162.497665
14.48 163.91745
14.50 168.268036
14.52 175.819427
14.54 171.825226
14.56 168.661804
14.58 165.999664
14.60 171.680679
14.62 165.632004
14.64 172.512482
14.66 179.714539
14.68 182.293167
14.70 183.457458
14.72 188.80603
14.74 192.411392
14.76 203.158554
14.78 201.948975
14.80 201.095123
14.82 210.782166
14.84 214.667709
14.86 222.174133
14.88 230.12886
14.90 243.610214
14.92 246.111511
14.94 260.854889
14.96 282.961029
14.98 282.5755
15.00 293.408813
15.02 311.485443
15.04 331.604736
15.06 346.972137
15.08 368.575684
15.10 384.517609
15.12 402.311798
15.14 428.021393
15.16 459.646545
15.18 473.413727
15.20 504.316254
15.22 524.825867
15.24 551.979492
15.26 558.309998
15.28 570.794678
15.30 572.185913
15.32 573.496338
15.34 572.258606
15.36 559.193604
15.38 537.793091
15.40 508.913757
15.42 477.373749
15.44 447.759521
15.46 413.342682
15.48 382.062286
15.50 353.869598
15.52 322.749573
15.54 306.559143
15.56 298.442871
15.58 287.883972
15.60 268.702484
15.62 249.719574
15.64 241.127625
15.66 244.124847
15.68 235.095245
15.70 225.384155
15.72 226.046234
15.74 222.716171
15.76 208.553909
15.78 207.168198
15.80 198.373016
15.82 197.43721
15.84 202.913757
15.86 203.426514
15.88 198.47467
15.90 198.523468
15.92 194.861954
15.94 188.847534
15.96 194.347748
15.98 196.280136
16.00 191.901901
16.02 187.662766
16.04 183.128891
16.06 186.875214
16.08 179.544144
16.10 184.130234
16.12 184.778763
16.14 187.161392
16.16 176.786606
16.18 175.000565
16.20 179.534378
16.22 175.49144
16.24 175.046753
16.26 174.852066
16.28 171.8685
16.30 170.674194
16.32 175.445267
16.34 177.466919
16.36 180.868988
16.38 179.318542
16.40 182.84256
16.42 177.79129
16.44 179.230865
16.46 174.804443
16.48 170.938187
16.50 185.238617
16.52 179.28093
16.54 181.940887
16.56 184.255508
16.58 180.26207
16.60 179.364853
16.62 176.253647
16.64 176.945892
16.66 177.497711
16.68 180.519348
16.70 176.225052
16.72 179.120193
16.74 181.126907
16.76 181.797836
16.78 178.328705
16.80 186.085602
16.82 190.20787
16.84 179.450226
16.86 181.497543
16.88 180.808273
16.90 180.25264
16.92 179.035095
16.94 177.75441
16.96 181.177078
16.98 184.385223
17.00 184.72464
17.02 185.778442
17.04 184.460052
17.06 186.099075
17.08 183.974777
17.10 182.303345
17.12 185.722961
17.14 180.918472
17.16 186.328644
17.18 185.181
17.20 188.431778
17.22 189.07518
17.24 188.978256
17.26 182.648911
17.28 179.653305
17.30 187.01683
17.32 194.975357
17.34 186.678894
17.36 188.389313
17.38 186.502884
17.40 188.908493
17.42 195.390488
17.44 194.112701
17.46 193.431015
17.48 193.440109
17.50 189.822281
17.52 189.005219
17.54 187.83075
17.56 185.966721
17.58 186.556168
17.60 186.503845
17.62 195.389191
17.64 198.728195
17.66 195.894592
17.68 193.392853
17.70 193.559784
17.72 192.23996
17.74 193.331818
17.76 200.452667
17.78 195.790543
17.80 195.644699
17.82 200.68306
17.84 202.347595
17.86 202.169662
17.88 200.426346
17.90 197.826096
17.92 198.14595
17.94 198.290756
17.96 196.062073
17.98 203.312592
18.00 201.707336
18.02 195.742538
18.04 191.690491
18.06 199.094742
18.08 201.133972
18.10 204.60994
18.12 198.885117
18.14 198.629364
18.16 202.802841
18.18 200.341461
18.20 201.790543
18.22 204.284576
18.24 201.683517
18.26 196.954941
18.28 203.484863
18.30 205.492004
18.32 206.933502
18.34 210.106476
18.36 206.631256
18.38 211.3181
18.40 213.455887
18.42 205.425858
18.44 204.840851
18.46 206.957123
18.48 216.108017
18.50 213.704987
18.52 215.117996
18.54 214.124191
18.56 213.786682
18.58 213.364227
18.60 205.265182
18.62 206.847382
18.64 209.332443
18.66 211.927856
18.68 212.538956
18.70 214.012573
18.72 208.145813
18.74 213.518951
18.76 223.430405
18.78 218.314377
18.80 213.093521
18.82 213.094788
18.84 211.658676
18.86 212.856384
18.88 220.330414
18.90 217.601547
18.92 219.412537
18.94 218.918716
18.96 216.317566
18.98 215.510315
19.00 220.231888
19.02 225.124649
19.04 222.542984
19.06 224.405487
19.08 219.348755
19.10 215.51741
19.12 207.655762
19.14 216.288574
19.16 223.57193
19.18 208.9151
19.20 216.495117
19.22 224.95787
19.24 225.123993
19.26 226.564026
19.28 227.468048
19.30 220.649902
19.32 218.903198
19.34 228.135056
19.36 227.514557
19.38 228.863495
19.40 228.033813
19.42 224.262299
19.44 230.474594
19.46 229.252899
19.48 228.132477
19.50 226.903458
19.52 226.022079
19.54 232.209213
19.56 237.555466
19.58 235.697189
19.60 238.935638
19.62 237.651871
19.64 241.478271
19.66 242.834061
19.68 240.376785
19.70 235.885803
19.72 232.56459
19.74 233.154465
19.76 240.786224
19.78 237.623978
19.80 243.553268
19.82 239.440994
19.84 235.660522
19.86 240.637253
19.88 246.056152
19.90 244.79744
19.92 241.153183
19.94 239.105576
19.96 232.614273
19.98 237.196457
20.00 243.89415
20.02 245.715393
20.04 246.975449
20.06 249.573669
20.08 246.032211
20.10 249.71254
20.12 253.317764
20.14 251.196533
20.16 246.129532
20.18 249.614975
20.20 248.505264
20.22 241.128967
20.24 254.065948
20.26 258.727234
20.28 253.336807
20.30 252.725632
20.32 252.593399
20.34 252.317719
20.36 243.734497
20.38 246.962708
20.40 244.499878
20.42 251.36142
20.44 255.178589
20.46 256.435272
20.48 251.57634
20.50 248.669815
20.52 261.552582
20.54 262.549774
20.56 264.739105
20.58 263.795135
20.60 265.074402
20.62 266.89682
20.64 262.528107
20.66 263.230347
20.68 261.913605
20.70 260.091553
20.72 262.074127
20.74 261.740082
20.76 263.350006
20.78 260.862152
20.80 262.085785
20.82 263.915314
20.84 271.064667
20.86 270.511536
20.88 267.900635
20.90 267.613098
20.92 267.017273
20.94 270.655975
20.96 261.133606
20.98 265.231995
21.00 270.386749
21.02 269.564331
21.04 265.191803
21.06 269.941315
21.08 263.79187
21.10 265.783783
21.12 265.951813
21.14 277.946136
21.16 280.017975
21.18 280.421753
21.20 277.442535
21.22 274.410004
21.24 276.443604
21.26 278.882477
21.28 280.848663
21.30 280.972961
21.32 281.810059
21.34 279.181854
21.36 278.45816
21.38 284.697144
21.40 282.320984
21.42 287.42868
21.44 291.101624
21.46 294.506958
21.48 284.435638
21.50 281.391235
21.52 287.654175
21.54 295.406281
21.56 297.118103
21.58 293.787476
21.60 292.835999
21.62 297.84491
21.64 304.389618
21.66 305.407898
21.68 304.527679
21.70 301.644287
21.72 297.255737
21.74 298.750977
21.76 304.688507
21.78 309.807251
21.80 304.526794
21.82 301.27066
21.84 300.841003
21.86 302.661774
21.88 299.970734
21.90 300.396393
21.92 293.961792
21.94 301.396057
21.96 298.635468
21.98 300.578125
22.00 295.761475
22.02 295.897949
22.04 300.634399
22.06 298.069641
22.08 292.135864
22.10 296.809387
22.12 301.129242
22.14 301.02832
22.16 296.282349
22.18 295.664398
22.20 290.933777
22.22 295.62674
22.24 297.474976
22.26 303.316315
22.28 299.413452
22.30 292.55719
22.32 291.203094
22.34 301.104187
22.36 302.879028
22.38 303.80304
22.40 294.915649
22.42 293.586426
22.44 293.745117
22.46 301.430725
22.48 301.371582
22.50 306.923431
22.52 300.813293
22.54 297.913086
22.56 302.043457
22.58 303.533997
22.60 300.473145
22.62 306.937714
22.64 304.771576
22.66 303.042328
22.68 303.160431
22.70 300.505981
22.72 298.831726
22.74 304.97345
22.76 308.462158
22.78 305.12738
22.80 308.606354
22.82 309.440674
22.84 304.237549
22.86 304.238861
22.88 302.020203
22.90 302.251923
22.92 306.645477
22.94 303.360443
22.96 308.00354
22.98 313.322113
23.00 307.658844
23.02 303.772827
23.04 307.245972
23.06 309.627441
23.08 305.850037
23.10 302.470886
23.12 311.323242
23.14 305.865692
23.16 302.935944
23.18 309.255127
23.20 312.135376
23.22 315.050598
23.24 316.779877
23.26 311.349579
23.28 315.721344
23.30 318.951447
23.32 318.28418
23.34 309.911804
23.36 299.720642
23.38 303.583252
23.40 316.92276
23.42 312.779785
23.44 309.930389
23.46 308.399323
23.48 307.07431
23.50 317.848877
23.52 317.108063
23.54 312.966278
23.56 313.670349
23.58 314.245819
23.60 319.34256
23.62 314.655823
23.64 319.378174
23.66 316.557861
23.68 314.416443
23.70 313.102905
23.72 314.359863
23.74 314.109009
23.76 318.681976
23.78 318.310852
23.80 321.943054
23.82 317.349915
23.84 317.533203
23.86 313.679291
23.88 311.96283
23.90 319.918457
23.92 313.126343
23.94 321.617401
23.96 329.29007
23.98 329.212463
24.00 324.315369
24.02 321.558838
24.04 327.43515
24.06 328.945099
24.08 323.936066
24.10 320.621246
24.12 317.286957
24.14 324.112518
24.16 318.281189
24.18 318.721558
24.20 321.961639
24.22 319.764709
24.24 321.531464
24.26 321.019623
24.28 323.41391
24.30 328.594391
24.32 330.993835
24.34 318.875671
24.36 322.967987
24.38 332.964905
24.40 325.583099
24.42 327.543396
24.44 318.264008
24.46 317.800903
24.48 316.417938
24.50 321.828735
24.52 325.089111
24.54 322.537689
24.56 322.255707
24.58 317.836761
24.60 316.866577
24.62 317.608154
24.64 318.250885
24.66 318.378662
24.68 319.411957
24.70 320.09903
24.72 322.381989
24.74 326.322083
24.76 314.062164
24.78 315.879181
24.80 317.205109
24.82 318.453461
24.84 319.64505
24.86 323.384796
24.88 322.242249
24.90 324.65625
24.92 318.085022
24.94 322.35376
24.96 321.108826
24.98 319.586273
25.00 322.871735
25.02 319.449677
25.04 315.362396
25.06 317.535553
25.08 320.574341
25.10 333.407227
25.12 334.033783
25.14 328.301636
25.16 331.432587
25.18 320.71521
25.20 323.037231
25.22 324.609283
25.24 316.192902
25.26 315.891022
25.28 316.043091
25.30 316.294189
25.32 323.334473
25.34 321.293671
25.36 323.440155
25.38 323.307281
25.40 322.452545
25.42 323.218262
25.44 316.800781
25.46 311.740692
25.48 313.027802
25.50 327.433655
25.52 325.874725
25.54 325.983704
25.56 323.507813
25.58 324.186066
25.60 331.313568
25.62 325.527527
25.64 324.882874
25.66 320.519806
25.68 321.953217
25.70 321.148895
25.72 320.531891
25.74 319.780151
25.76 315.898895
25.78 313.801239
25.80 318.317383
25.82 318.055573
25.84 317.211212
25.86 325.163513
25.88 328.030853
25.90 321.345001
25.92 320.610504
25.94 320.642487
25.96 326.16626
25.98 323.82962
26.00 321.410767
26.02 322.085236
26.04 321.812286
26.06 317.35968
26.08 312.95459
26.10 317.61377
26.12 320.673767
26.14 318.429565
26.16 323.71698
26.18 324.853027
26.20 322.055084
26.22 320.552002
26.24 324.448303
26.26 323.400299
26.28 322.554504
26.30 323.918701
26.32 324.221344
26.34 326.692657
26.36 321.743774
26.38 328.123901
26.40 326.360413
26.42 321.485809
26.44 324.035645
26.46 321.006317
26.48 319.943298
26.50 315.386078
26.52 321.720184
26.54 328.832092
26.56 315.549408
26.58 315.606964
26.60 319.191895
26.62 322.144836
26.64 323.66275
26.66 321.825287
26.68 324.884277
26.70 321.25827
26.72 324.007233
26.74 318.485718
26.76 319.94162
26.78 318.961212
26.80 326.415039
26.82 323.736237
26.84 319.704132
26.86 317.44516
26.88 314.742523
26.90 315.22226
26.92 315.369049
26.94 313.280029
26.96 314.46286
26.98 319.083923
27.00 327.570221
27.02 324.817932
27.04 316.052094
27.06 317.259308
27.08 325.806702
27.10 322.73468
27.12 319.914886
27.14 317.713318
27.16 316.516113
27.18 312.469757
27.20 312.443604
27.22 319.349121
27.24 317.854126
27.26 321.871521
27.28 315.151642
27.30 314.45166
27.32 315.534302
27.34 321.453827
27.36 323.471802
27.38 324.71582
27.40 319.115479
27.42 321.72998
27.44 321.045197
27.46 313.686554
27.48 323.231659
27.50 319.928162
27.52 315.253357
27.54 314.545044
27.56 311.949585
27.58 312.575775
27.60 317.514313
27.62 317.516479
27.64 312.177521
27.66 314.925171
27.68 312.774384
27.70 317.098633
27.72 315.541779
27.74 315.40332
27.76 315.919739
27.78 320.058472
27.80 320.138092
27.82 314.510315
27.84 310.349335
27.86 315.918549
27.88 320.163208
27.90 318.090027
27.92 317.975098
27.94 315.540466
27.96 318.040863
27.98 315.798401
28.00 317.498962
28.02 306.402405
28.04 307.408875
28.06 314.668396
28.08 319.145447
28.10 315.034912
28.12 316.312683
28.14 314.039337
28.16 308.666931
28.18 307.346802
28.20 306.631683
28.22 308.806
28.24 308.953888
28.26 311.727417
28.28 312.944458
28.30 316.136841
28.32 312.732056
28.34 319.869965
28.36 313.331696
28.38 311.461426
28.40 318.24704
28.42 313.395416
28.44 311.23111
28.46 311.970459
28.48 315.537506
28.50 317.015686
28.52 313.572937
28.54 305.746185
28.56 310.278748
28.58 315.890503
28.60 315.540833
28.62 308.077179
28.64 310.209381
28.66 311.411499
28.68 311.755615
28.70 310.998199
28.72 307.535126
28.74 306.252563
28.76 299.902252
28.78 309.59256
28.80 314.027313
28.82 312.954834
28.84 310.023651
28.86 311.047089
28.88 306.85968
28.90 310.891205
28.92 316.023346
28.94 315.026703
28.96 310.58255
28.98 308.524323
29.00 303.067047
29.02 307.085724
29.04 312.877411
29.06 314.469391
29.08 308.390198
29.10 306.734131
29.12 313.142395
29.14 310.492615
29.16 308.259857
29.18 305.444153
29.20 311.059662
29.22 307.196564
29.24 307.569489
29.26 307.585297
29.28 306.875793
29.30 307.155029
29.32 304.671814
29.34 306.283875
29.36 309.627411
29.38 311.042358
29.40 312.68631
29.42 311.48645
29.44 308.405853
29.46 307.839478
29.48 310.752258
29.50 308.48407
29.52 314.044647
29.54 314.148438
29.56 307.003204
29.58 300.911499
29.60 299.220551
29.62 308.750824
29.64 308.649475
29.66 305.934906
29.68 306.471954
29.70 305.433014
29.72 311.349152
29.74 308.311401
29.76 306.42276
29.78 306.345062
29.80 309.471222
29.82 303.223633
29.84 301.680054
29.86 306.978271
29.88 308.665771
29.90 312.831451
29.92 309.603241
29.94 302.771057
29.96 300.960754
29.98 303.721619
30.00 307.356598
30.02 303.93924
30.04 301.554382
30.06 303.006805
30.08 308.6586
30.10 314.841888
30.12 311.39093
30.14 315.582062
30.16 320.618683
30.18 317.934998
30.20 309.485931
30.22 306.54718
30.24 305.240417
30.26 309.817657
30.28 313.600189
30.30 318.932861
30.32 319.97403
30.34 311.532959
30.36 308.354553
30.38 307.596283
30.40 312.085052
30.42 316.044067
30.44 312.539734
30.46 313.101776
30.48 311.508514
30.50 315.858459
30.52 314.390198
30.54 318.709991
30.56 326.502563
30.58 321.110992
30.60 322.416443
30.62 323.053558
30.64 331.988159
30.66 335.010742
30.68 330.559357
30.70 335.559509
30.72 338.593231
30.74 345.69101
30.76 359.811859
30.78 364.023987
30.80 368.22876
30.82 388.996521
30.84 393.86618
30.86 393.270844
30.88 397.264709
30.90 400.664642
30.92 403.683228
30.94 406.907501
30.96 403.328094
30.98 398.137573
31.00 394.363861
31.02 401.220825
31.04 391.943726
31.06 385.396301
31.08 376.225281
31.10 358.01181
31.12 342.352936
31.14 343.300476
31.16 343.965027
31.18 333.501007
31.20 328.063293
31.22 322.615448
31.24 320.915344
31.26 312.206818
31.28 308.66925
31.30 310.497589
31.32 308.502258
31.34 310.816895
31.36 305.437317
31.38 303.93985
31.40 301.913269
31.42 303.130127
31.44 302.943817
31.46 295.289581
31.48 293.839844
31.50 290.510071
31.52 293.153564
31.54 296.860779
31.56 297.895111
31.58 289.766754
31.60 287.000702
31.62 286.361328
31.64 289.960114
31.66 296.982788
31.68 287.522247
31.70 282.013153
31.72 286.487061
31.74 293.420593
31.76 290.6185
31.78 294.865601
31.80 289.793915
31.82 287.705811
31.84 285.756378
31.86 281.453156
31.88 279.855042
31.90 285.362885
31.92 287.978668
31.94 284.214111
31.96 294.011719
31.98 291.678741
32.00 281.197723
32.02 280.680206
32.04 282.169159
32.06 282.387268
32.08 284.128479
32.10 283.017731
32.12 279.838806
32.14 279.715088
32.16 284.324463
32.18 280.789795
32.20 280.808929
32.22 283.122498
32.24 278.270721
32.26 278.901642
32.28 277.685211
32.30 274.322479
32.32 280.897003
32.34 287.230469
32.36 279.551971
32.38 269.474976
32.40 277.160065
32.42 277.335571
32.44 270.62674
32.46 271.15686
32.48 269.583893
32.50 277.570709
32.52 284.883301
32.54 274.684509
32.56 270.676575
32.58 271.579193
32.60 270.609863
32.62 271.236908
32.64 269.259094
32.66 267.670135
32.68 270.026031
32.70 274.892883
32.72 273.145844
32.74 269.268005
32.76 266.543793
32.78 265.719208
32.80 264.834595
32.82 265.676178
32.84 263.838959
32.86 272.643341
32.88 271.910004
32.90 269.221222
32.92 269.391174
32.94 268.666016
32.96 266.492828
32.98 263.25824
33.00 268.184082
33.02 270.377869
33.04 264.277191
33.06 263.547638
33.08 259.556213
33.10 263.380676
33.12 269.407501
33.14 275.405548
33.16 271.695251
33.18 266.47583
33.20 270.139709
33.22 271.252869
33.24 269.704956
33.26 266.070435
33.28 263.890533
33.30 262.645721
33.32 263.454987
33.34 262.319427
33.36 258.763245
33.38 260.09906
33.40 265.78064
33.42 264.309174
33.44 260.264099
33.46 261.37674
33.48 263.241882
33.50 262.45166
33.52 260.220001
33.54 260.463959
33.56 253.374176
33.58 255.302444
33.60 255.008331
33.62 256.259888
33.64 255.140686
33.66 254.363556
33.68 256.490326
33.70 261.091003
33.72 260.822998
33.74 253.447128
33.76 256.639069
33.78 255.970978
33.80 255.10173
33.82 254.957809
33.84 255.417358
33.86 253.301392
33.88 253.680481
33.90 254.437256
33.92 260.884247
33.94 251.664902
33.96 256.141205
33.98 260.502655
34.00 262.61084
34.02 257.9776
34.04 259.450409
34.06 262.222321
34.08 260.906494
34.10 257.512299
34.12 255.532867
34.14 256.023254
34.16 260.313293
34.18 261.338104
34.20 255.418396
34.22 254.118774
34.24 257.55835
34.26 258.944489
34.28 261.421021
34.30 262.216095
34.32 260.860687
34.34 255.22937
34.36 257.736359
34.38 255.838272
34.40 253.721527
34.42 257.09317
34.44 261.650116
34.46 263.469696
34.48 266.896149
34.50 263.630219
34.52 267.48764
34.54 270.192719
34.56 263.310669
34.58 269.829773
34.60 268.939789
34.62 267.561615
34.64 265.094055
34.66 269.847626
34.68 263.215912
34.70 265.508606
34.72 271.023193
34.74 270.897919
34.76 268.586029
34.78 269.797363
34.80 265.040405
34.82 264.120605
34.84 264.61676
34.86 264.669617
34.88 259.352142
34.90 258.773682
34.92 253.391541
34.94 252.109985
34.96 250.900085
34.98 247.745224
35.00 244.092484
35.02 242.550674
35.04 239.949051
35.06 239.092667
35.08 237.121628
35.10 238.357605
35.12 239.217438
35.14 237.826889
35.16 233.558075
35.18 231.175003
35.20 235.649353
35.22 233.57431
35.24 233.280884
35.26 228.607452
35.28 225.218735
35.30 224.806137
35.32 218.98027
35.34 219.749329
35.36 222.09848
35.38 221.866592
35.40 228.356537
35.42 226.151825
35.44 217.677841
35.46 223.191284
35.48 220.390854
35.50 216.204071
35.52 213.748138
35.54 221.52005
35.56 221.455154
35.58 219.047928
35.60 216.915039
35.62 212.616364
35.64 213.061752
35.66 215.361847
35.68 212.443634
35.70 211.506226
35.72 207.109482
35.74 210.223999
35.76 213.900528
35.78 211.213867
35.80 208.186111
35.82 213.186111
35.84 212.489319
35.86 210.404816
35.88 210.616058
35.90 211.090057
35.92 211.307968
35.94 210.341721
35.96 213.051865
35.98 209.025421
36.00 208.249237
36.02 206.104874
36.04 208.008072
36.06 205.491547
36.08 205.14592
36.10 204.555756
36.12 204.710175
36.14 204.514694
36.16 200.263184
36.18 205.908981
36.20 206.837097
36.22 206.844955
36.24 204.827377
36.26 202.591537
36.28 204.563095
36.30 204.138153
36.32 200.656342
36.34 196.745575
36.36 199.877686
36.38 203.744965
36.40 200.058838
36.42 201.524857
36.44 198.820557
36.46 197.289581
36.48 198.494064
36.50 200.496933
36.52 191.963074
36.54 192.904724
36.56 199.796295
36.58 199.559296
36.60 197.058228
36.62 189.897568
36.64 193.98613
36.66 196.471954
36.68 196.693802
36.70 196.635071
36.72 196.830032
36.74 192.163055
36.76 195.581253
36.78 197.032639
36.80 188.731445
36.82 187.783188
36.84 192.981796
36.86 198.293961
36.88 198.543381
36.90 198.100021
36.92 199.98175
36.94 195.642639
36.96 192.916916
36.98 189.947876
37.00 192.241592
37.02 188.23381
37.04 189.110031
37.06 187.089539
37.08 193.461319
37.10 191.985947
37.12 195.664337
37.14 197.288086
37.16 192.201202
37.18 193.609207
37.20 190.733063
37.22 189.911362
37.24 190.178635
37.26 189.354828
37.28 193.470184
37.30 189.06987
37.32 188.505203
37.34 185.300507
37.36 177.619553
37.38 181.569656
37.40 186.875656
37.42 184.62439
37.44 185.903152
37.46 190.730255
37.48 184.488983
37.50 182.495468
37.52 187.650757
37.54 189.750931
37.56 189.190048
37.58 191.701584
37.60 186.178528
37.62 187.924576
37.64 187.5159
37.66 189.012329
37.68 191.659424
37.70 187.665085
37.72 186.395172
37.74 187.487762
37.76 188.163895
37.78 189.738754
37.80 192.333862
37.82 189.292999
37.84 187.63208
37.86 186.959045
37.88 187.39357
37.90 184.62764
37.92 188.53331
37.94 191.819214
37.96 191.621887
37.98 190.712692
38.00 190.772934
38.02 190.417587
38.04 185.51358
38.06 185.319519
38.08 188.469315
38.10 191.468674
38.12 190.263367
38.14 186.21759
38.16 190.762604
38.18 189.281784
38.20 189.593536
38.22 187.330322
38.24 185.563919
38.26 184.451096
38.28 180.251434
38.30 183.47757
38.32 180.410202
38.34 181.447662
38.36 183.410065
38.38 184.439026
38.40 178.410675
38.42 185.125732
38.44 180.712051
38.46 181.828522
38.48 178.051239
38.50 180.185715
38.52 180.855087
38.54 181.287552
38.56 175.21109
38.58 177.138199
38.60 183.121658
38.62 175.419952
38.64 175.641922
38.66 177.082703
38.68 175.331436
38.70 173.62825
38.72 174.482086
38.74 178.442551
38.76 171.953506
38.78 173.104324
38.80 176.959976
38.82 169.896179
38.84 167.207626
38.86 170.007263
38.88 175.384735
38.90 174.024445
38.92 172.773788
38.94 174.564392
38.96 167.510101
38.98 167.905655
39.00 164.087784
39.02 170.321762
39.04 172.24472
39.06 173.733459
39.08 170.163452
39.10 171.278519
39.12 164.123276
39.14 164.466812
39.16 165.248886
39.18 168.831879
39.20 167.820068
39.22 167.394318
39.24 168.707138
39.26 171.152237
39.28 169.078918
39.30 162.402618
39.32 163.787491
39.34 166.444397
39.36 166.868927
39.38 165.468475
39.40 168.319794
39.42 165.147339
39.44 167.118439
39.46 166.654373
39.48 166.114731
39.50 166.291611
39.52 167.301987
39.54 163.051834
39.56 168.670059
39.58 165.265762
39.60 163.809402
39.62 166.547333
39.64 167.549515
39.66 164.234207
39.68 166.336441
39.70 161.781158
39.72 164.508087
39.74 166.758148
39.76 162.477859
39.78 158.869278
39.80 160.445297
39.82 166.548294
39.84 164.168945
39.86 163.827271
39.88 163.370132
39.90 160.991058
39.92 163.362335
39.94 161.769775
39.96 161.563232
39.98 158.385132
40.00 162.363586
