!@!!GADDS PLOTSO FILE: Chi integration type
!@!!Title/SampleName: ML_MAPbX3_chem2
!@!!User: NREL
!@!!Site: NREL SERF C211; SN 2510
!@!!Frame: C:\frames\rbelisle\MLProject\081022_MLProject_000_002.gfrm
!@!!Wavelengths    1.54184   1.54056   1.54439
!@!!Frame angles: 2Theta: 28.000 Omega: 5.000 Phi: 0.000 Chi: 90.000
!@!!Integration range: 2Theta: 10.000 to 40.000  Gamma: -130.000 to -110.000
!@!!Integration method: bin normalized
!@!N
!@!SS
!@!M
!@!L 0.0 0.0 0.0 0.0
!@!XDegrees
!@!YCounts
10.00 83.872337
10.02 95.021271
10.04 97.830803
10.06 95.600433
10.08 85.98008
10.10 93.972221
10.12 96.963898
10.14 86.443619
10.16 87.367859
10.18 83.671036
10.20 94.749039
10.22 86.977135
10.24 89.510323
10.26 94.163086
10.28 98.448822
10.30 94.385109
10.32 101.004532
10.34 97.937401
10.36 104.371941
10.38 92.614693
10.40 88.037682
10.42 97.7024
10.44 102.881554
10.46 101.360947
10.48 90.615578
10.50 97.362724
10.52 98.965752
10.54 98.901741
10.56 87.709473
10.58 101.500053
10.60 112.853928
10.62 104.034775
10.64 91.423492
10.66 97.808388
10.68 101.143295
10.70 103.896111
10.72 104.644371
10.74 82.67321
10.76 91.559753
10.78 98.136612
10.80 100.866394
10.82 94.192818
10.84 87.682686
10.86 101.855911
10.88 116.571014
10.90 102.835686
10.92 103.153992
10.94 109.661415
10.96 103.022133
10.98 96.471901
11.00 98.841225
11.02 100.40564
11.04 109.267601
11.06 129.369263
11.08 121.948692
11.10 106.889977
11.12 107.155548
11.14 122.177757
11.16 104.413857
11.18 108.172562
11.20 110.993195
11.22 118.870621
11.24 111.088188
11.26 109.59259
11.28 103.976173
11.30 98.374565
11.32 103.332901
11.34 118.603271
11.36 106.749176
11.38 106.837189
11.40 122.230942
11.42 114.913979
11.44 114.697723
11.46 112.497902
11.48 111.061089
11.50 110.630547
11.52 114.081734
11.54 117.355263
11.56 111.184952
11.58 111.984978
11.60 109.206619
11.62 110.903336
11.64 112.651138
11.66 111.225632
11.68 115.419746
11.70 104.850243
11.72 92.747948
11.74 101.991501
11.76 106.118027
11.78 112.317604
11.80 116.078766
11.82 114.25071
11.84 123.166901
11.86 120.622757
11.88 109.834305
11.90 118.672012
11.92 125.204536
11.94 127.414764
11.96 116.303246
11.98 121.333969
12.00 123.948746
12.02 120.89283
12.04 123.747887
12.06 118.04837
12.08 115.579361
12.10 113.415596
12.12 105.977997
12.14 121.725655
12.16 119.885139
12.18 124.353821
12.20 116.50042
12.22 115.738586
12.24 110.77272
12.26 121.119385
12.28 123.315178
12.30 135.177948
12.32 137.837219
12.34 118.06826
12.36 117.020058
12.38 118.533188
12.40 127.992958
12.42 116.722
12.44 115.009056
12.46 109.913757
12.48 126.154495
12.50 124.555946
12.52 124.035835
12.54 117.13102
12.56 115.45446
12.58 118.712364
12.60 124.20726
12.62 124.927956
12.64 118.154442
12.66 128.425522
12.68 117.053009
12.70 125.1064
12.72 138.804382
12.74 127.332321
12.76 122.405289
12.78 131.429123
12.80 134.754974
12.82 140.916168
12.84 136.723724
12.86 125.781876
12.88 117.957535
12.90 107.039124
12.92 106.812546
12.94 117.551315
12.96 124.709724
12.98 125.173515
13.00 138.06163
13.02 137.390442
13.04 127.906845
13.06 132.041107
13.08 132.018005
13.10 125.258659
13.12 119.798943
13.14 124.800079
13.16 134.575546
13.18 119.052353
13.20 128.319153
13.22 133.198639
13.24 133.369278
13.26 121.405762
13.28 113.996964
13.30 119.653267
13.32 121.863297
13.34 122.403206
13.36 132.46492
13.38 118.54171
13.40 130.640884
13.42 137.895477
13.44 126.93972
13.46 129.735199
13.48 135.739609
13.50 144.963211
13.52 138.778275
13.54 126.583359
13.56 124.350739
13.58 138.20665
13.60 134.848724
13.62 139.194717
13.64 131.401047
13.66 145.859833
13.68 137.532394
13.70 132.151627
13.72 140.614151
13.74 135.051743
13.76 137.037094
13.78 138.783707
13.80 129.718155
13.82 122.145584
13.84 128.109039
13.86 137.404984
13.88 145.562195
13.90 139.391754
13.92 132.477417
13.94 119.465546
13.96 120.144341
13.98 130.859985
14.00 127.695267
14.02 130.780762
14.04 146.141602
14.06 130.616867
14.08 125.365974
14.10 123.662392
14.12 141.530289
14.14 139.932434
14.16 138.718307
14.18 143.684204
14.20 129.691452
14.22 145.301193
14.24 146.529922
14.26 147.242432
14.28 148.896957
14.30 132.785599
14.32 137.067368
14.34 137.031311
14.36 136.843262
14.38 131.855072
14.40 128.020187
14.42 134.689285
14.44 138.736832
14.46 137.888977
14.48 143.525238
14.50 144.116867
14.52 136.392914
14.54 145.843704
14.56 152.512177
14.58 148.045471
14.60 145.437424
14.62 132.352554
14.64 132.536514
14.66 142.110321
14.68 138.213226
14.70 132.059311
14.72 137.15126
14.74 135.253723
14.76 139.582535
14.78 133.038177
14.80 136.709518
14.82 157.609573
14.84 152.19487
14.86 138.209473
14.88 136.454437
14.90 143.031906
14.92 159.054428
14.94 150.468781
14.96 153.449844
14.98 159.302597
15.00 160.797287
15.02 161.747025
15.04 155.277847
15.06 165.380981
15.08 173.96431
15.10 172.072632
15.12 165.401108
15.14 158.480515
15.16 171.747391
15.18 163.735092
15.20 172.500412
15.22 171.029099
15.24 180.200775
15.26 170.100037
15.28 177.417313
15.30 174.554367
15.32 164.639938
15.34 166.660431
15.36 164.529541
15.38 169.551743
15.40 158.253952
15.42 158.240707
15.44 165.415176
15.46 176.971146
15.48 173.161453
15.50 167.938828
15.52 170.964493
15.54 163.403351
15.56 165.587296
15.58 162.351379
15.60 164.047546
15.62 160.487625
15.64 167.299393
15.66 167.973206
15.68 175.054489
15.70 162.853165
15.72 166.315903
15.74 171.280441
15.76 159.942017
15.78 159.839172
15.80 152.021744
15.82 146.99826
15.84 152.937485
15.86 161.167465
15.88 175.680481
15.90 168.155594
15.92 151.342697
15.94 143.246429
15.96 158.452255
15.98 170.668304
16.00 172.485748
16.02 158.070267
16.04 150.262558
16.06 164.274246
16.08 159.938232
16.10 159.378845
16.12 162.372406
16.14 158.396683
16.16 140.432098
16.18 153.467117
16.20 169.001999
16.22 156.705292
16.24 153.147552
16.26 157.614166
16.28 155.353867
16.30 156.424591
16.32 153.023727
16.34 157.672348
16.36 167.981964
16.38 165.137726
16.40 165.841644
16.42 157.298386
16.44 156.541885
16.46 159.008087
16.48 161.084076
16.50 163.092209
16.52 160.8909
16.54 171.910828
16.56 160.725845
16.58 151.934158
16.60 157.655396
16.62 160.404526
16.64 160.078018
16.66 157.126556
16.68 178.417496
16.70 176.091293
16.72 170.968781
16.74 170.514618
16.76 169.84935
16.78 166.09993
16.80 175.701675
16.82 173.228699
16.84 155.943954
16.86 155.08194
16.88 166.660294
16.90 180.992691
16.92 175.771942
16.94 164.461487
16.96 153.337326
16.98 169.094177
17.00 175.689301
17.02 168.800705
17.04 167.508224
17.06 192.434952
17.08 189.411118
17.10 185.50827
17.12 179.397278
17.14 172.998367
17.16 171.001389
17.18 173.731339
17.20 182.566315
17.22 186.423248
17.24 183.793442
17.26 163.967957
17.28 176.41214
17.30 188.552765
17.32 197.120651
17.34 180.587387
17.36 171.028702
17.38 182.622864
17.40 184.038788
17.42 191.234985
17.44 173.703186
17.46 181.98793
17.48 184.058411
17.50 182.165329
17.52 174.740189
17.54 180.149704
17.56 176.292404
17.58 180.689987
17.60 168.189178
17.62 194.059448
17.64 189.811478
17.66 178.564102
17.68 185.589432
17.70 197.672134
17.72 191.050827
17.74 183.351425
17.76 190.660706
17.78 190.081955
17.80 180.318222
17.82 183.445602
17.84 188.898102
17.86 200.715347
17.88 201.506546
17.90 199.09938
17.92 191.158737
17.94 186.22757
17.96 190.641129
17.98 201.238678
18.00 193.927124
18.02 189.813553
18.04 194.05484
18.06 193.946381
18.08 194.366318
18.10 194.583984
18.12 180.043274
18.14 189.417526
18.16 205.42659
18.18 191.378738
18.20 181.148651
18.22 193.543274
18.24 196.929459
18.26 185.98941
18.28 191.272797
18.30 196.431793
18.32 190.649658
18.34 202.431198
18.36 210.464203
18.38 202.102676
18.40 202.002808
18.42 187.3172
18.44 189.947937
18.46 197.881104
18.48 205.360275
18.50 205.657822
18.52 206.583466
18.54 201.903427
18.56 193.781708
18.58 204.1017
18.60 198.640869
18.62 201.848679
18.64 203.102783
18.66 198.266022
18.68 195.45195
18.70 196.258957
18.72 193.848007
18.74 212.201218
18.76 226.174393
18.78 217.713257
18.80 207.28067
18.82 204.466293
18.84 206.052185
18.86 205.966324
18.88 200.077621
18.90 202.714508
18.92 206.758774
18.94 205.691177
18.96 204.859695
18.98 204.613754
19.00 209.64151
19.02 209.933899
19.04 207.113052
19.06 212.735214
19.08 206.543259
19.10 202.798676
19.12 191.883347
19.14 208.487549
19.16 229.512894
19.18 198.472733
19.20 219.875122
19.22 219.213959
19.24 215.584625
19.26 213.247437
19.28 214.765289
19.30 216.689865
19.32 212.695114
19.34 211.562302
19.36 213.536652
19.38 216.951553
19.40 219.535019
19.42 207.144241
19.44 225.006851
19.46 232.685318
19.48 221.48555
19.50 211.101379
19.52 215.867844
19.54 224.268661
19.56 225.373779
19.58 218.369553
19.60 216.028244
19.62 214.190979
19.64 220.862015
19.66 238.493652
19.68 234.962219
19.70 227.866806
19.72 217.31575
19.74 222.175385
19.76 233.715714
19.78 222.490036
19.80 221.472778
19.82 216.942307
19.84 215.453522
19.86 227.92569
19.88 238.288147
19.90 227.19751
19.92 225.414948
19.94 221.779724
19.96 214.720551
19.98 223.199036
20.00 237.091171
20.02 241.886368
20.04 243.693298
20.06 233.520767
20.08 219.953247
20.10 237.050125
20.12 246.094376
20.14 235.243393
20.16 231.383102
20.18 246.744736
20.20 252.027969
20.22 249.012482
20.24 250.037323
20.26 241.097824
20.28 235.431946
20.30 239.107208
20.32 225.533264
20.34 229.432983
20.36 226.555969
20.38 230.655411
20.40 232.749481
20.42 239.151688
20.44 238.221832
20.46 252.022812
20.48 251.011932
20.50 237.860184
20.52 252.307617
20.54 252.816269
20.56 246.465027
20.58 237.848465
20.60 240.720703
20.62 246.426285
20.64 243.294632
20.66 243.244553
20.68 238.145111
20.70 243.029129
20.72 253.95816
20.74 251.372284
20.76 251.765121
20.78 246.674347
20.80 248.283813
20.82 245.679398
20.84 247.453171
20.86 258.656647
20.88 260.334961
20.90 248.251236
20.92 255.315002
20.94 265.386963
20.96 249.479889
20.98 246.771835
21.00 257.021484
21.02 256.191406
21.04 256.102661
21.06 255.737534
21.08 250.085068
21.10 253.185242
21.12 262.584137
21.14 277.688416
21.16 278.127289
21.18 278.588593
21.20 273.518677
21.22 277.236542
21.24 276.949768
21.26 269.614166
21.28 282.585022
21.30 291.334564
21.32 276.902222
21.34 266.363464
21.36 267.041656
21.38 268.669556
21.40 266.222321
21.42 273.054352
21.44 268.432526
21.46 287.780029
21.48 276.453217
21.50 268.058655
21.52 272.968445
21.54 278.813934
21.56 270.957428
21.58 275.049774
21.60 272.323547
21.62 281.671997
21.64 301.387146
21.66 282.765015
21.68 272.413239
21.70 266.756287
21.72 264.128876
21.74 269.109222
21.76 287.148804
21.78 289.300293
21.80 282.459747
21.82 279.8125
21.84 278.250488
21.86 299.1362
21.88 300.44812
21.90 282.741425
21.92 277.416504
21.94 276.488922
21.96 289.457428
21.98 285.102325
22.00 285.751007
22.02 282.131927
22.04 289.192261
22.06 282.776337
22.08 289.653412
22.10 296.302521
22.12 299.658356
22.14 290.059906
22.16 285.74411
22.18 269.380066
22.20 269.730164
22.22 278.196167
22.24 274.363098
22.26 285.937653
22.28 291.498138
22.30 287.224426
22.32 282.612091
22.34 288.245209
22.36 285.730164
22.38 288.325714
22.40 273.442993
22.42 280.010315
22.44 292.907806
22.46 296.656921
22.48 277.802338
22.50 294.970612
22.52 290.468536
22.54 311.980286
22.56 301.458405
22.58 291.766602
22.60 291.782623
22.62 298.747101
22.64 300.332947
22.66 294.143707
22.68 285.927155
22.70 289.252136
22.72 278.833435
22.74 281.531403
22.76 289.422058
22.78 291.433716
22.80 284.774139
22.82 298.32724
22.84 284.835815
22.86 287.876709
22.88 283.923309
22.90 293.084686
22.92 295.070831
22.94 292.513306
22.96 291.30368
22.98 302.086853
23.00 291.651642
23.02 289.241852
23.04 290.565125
23.06 298.846863
23.08 294.180145
23.10 291.188873
23.12 312.858948
23.14 304.795349
23.16 289.578583
23.18 285.453552
23.20 298.912048
23.22 294.592926
23.24 291.228699
23.26 293.778381
23.28 294.598541
23.30 299.946503
23.32 306.948975
23.34 296.244232
23.36 294.958038
23.38 301.909424
23.40 302.457611
23.42 302.437958
23.44 292.680573
23.46 303.647644
23.48 304.421661
23.50 302.569153
23.52 303.948578
23.54 290.299774
23.56 286.506805
23.58 287.404083
23.60 301.007538
23.62 293.999817
23.64 299.965546
23.66 303.3237
23.68 303.423309
23.70 298.305267
23.72 304.256836
23.74 311.88623
23.76 301.233826
23.78 306.545959
23.80 317.411865
23.82 306.442902
23.84 300.36734
23.86 294.304016
23.88 297.805603
23.90 304.443115
23.92 298.331726
23.94 295.683411
23.96 307.663025
23.98 322.83606
24.00 323.812897
24.02 309.057526
24.04 316.183258
24.06 317.494324
24.08 306.032776
24.10 300.789307
24.12 295.039276
24.14 293.142517
24.16 303.334625
24.18 303.200592
24.20 294.150238
24.22 307.141205
24.24 312.438171
24.26 303.686584
24.28 305.279114
24.30 305.260986
24.32 312.553467
24.34 307.30307
24.36 299.807068
24.38 316.866669
24.40 311.93808
24.42 315.074219
24.44 307.005371
24.46 304.134125
24.48 297.018219
24.50 313.104431
24.52 305.834961
24.54 311.069336
24.56 310.865906
24.58 313.610626
24.60 314.092987
24.62 303.043823
24.64 300.47467
24.66 305.498962
24.68 306.848297
24.70 303.248566
24.72 309.147614
24.74 306.909821
24.76 296.549469
24.78 303.606842
24.80 311.926941
24.82 294.702728
24.84 287.767059
24.86 293.775543
24.88 295.909454
24.90 316.239807
24.92 314.43515
24.94 305.224121
24.96 302.270782
24.98 293.995544
25.00 304.618835
25.02 303.534363
25.04 291.292572
25.06 291.888672
25.08 295.869843
25.10 304.994049
25.12 310.325806
25.14 308.662537
25.16 307.891571
25.18 295.406738
25.20 296.734619
25.22 298.092651
25.24 300.781097
25.26 306.061981
25.28 294.781525
25.30 301.517242
25.32 300.92865
25.34 291.735229
25.36 312.171997
25.38 325.517975
25.40 313.501678
25.42 315.623291
25.44 290.446045
25.46 290.387573
25.48 290.000824
25.50 309.123474
25.52 307.778625
25.54 302.739929
25.56 310.023041
25.58 316.453522
25.60 309.670349
25.62 314.812225
25.64 315.428955
25.66 292.620148
25.68 284.254242
25.70 300.898529
25.72 289.57486
25.74 287.38443
25.76 291.617737
25.78 290.971191
25.80 309.058594
25.82 318.23291
25.84 299.722656
25.86 309.226807
25.88 312.443848
25.90 303.546722
25.92 303.330383
25.94 298.457397
25.96 305.172485
25.98 321.860443
26.00 310.682892
26.02 308.813599
26.04 314.076263
26.06 313.565552
26.08 304.807678
26.10 302.481476
26.12 304.83905
26.14 302.895477
26.16 305.506653
26.18 312.531586
26.20 296.679901
26.22 300.613647
26.24 319.823792
26.26 309.075562
26.28 300.640533
26.30 319.323547
26.32 309.954559
26.34 307.92865
26.36 311.473633
26.38 320.092712
26.40 330.29187
26.42 302.417694
26.44 298.775055
26.46 302.213959
26.48 303.70755
26.50 295.911865
26.52 304.174286
26.54 320.312317
26.56 302.858032
26.58 293.14502
26.60 292.961395
26.62 301.822723
26.64 291.975708
26.66 292.251953
26.68 297.797668
26.70 304.971222
26.72 314.579742
26.74 312.8508
26.76 322.34021
26.78 309.870056
26.80 306.463287
26.82 310.869629
26.84 295.641449
26.86 302.598297
26.88 300.377411
26.90 301.2341
26.92 301.560242
26.94 309.446045
26.96 308.857483
26.98 294.527039
27.00 318.716949
27.02 321.667725
27.04 313.275543
27.06 304.28363
27.08 305.692902
27.10 300.575836
27.12 300.072998
27.14 310.02301
27.16 297.45462
27.18 301.636047
27.20 293.488312
27.22 305.393341
27.24 303.44104
27.26 310.689758
27.28 319.837555
27.30 298.749207
27.32 281.01767
27.34 294.967651
27.36 307.136597
27.38 311.122162
27.40 306.08786
27.42 304.214142
27.44 314.581055
27.46 301.708527
27.48 305.026062
27.50 292.162811
27.52 289.840881
27.54 302.094025
27.56 300.331818
27.58 295.003845
27.60 297.228821
27.62 306.01828
27.64 303.257874
27.66 300.182648
27.68 288.025452
27.70 292.735382
27.72 298.887512
27.74 297.479858
27.76 297.824585
27.78 291.218475
27.80 311.777924
27.82 300.446899
27.84 291.281281
27.86 302.42041
27.88 302.256165
27.90 291.903961
27.92 292.178345
27.94 288.882538
27.96 291.46344
27.98 301.491425
28.00 305.71283
28.02 297.787964
28.04 302.747925
28.06 306.990082
28.08 303.862274
28.10 302.050995
28.12 299.12262
28.14 292.106506
28.16 284.269226
28.18 286.604797
28.20 293.741516
28.22 296.960785
28.24 293.798065
28.26 295.603119
28.28 291.360199
28.30 301.70166
28.32 295.183594
28.34 301.537903
28.36 288.793121
28.38 288.96051
28.40 300.552185
28.42 307.064667
28.44 293.766998
28.46 281.246948
28.48 295.407623
28.50 308.890411
28.52 303.180878
28.54 294.462372
28.56 301.035614
28.58 305.323853
28.60 305.880829
28.62 297.888763
28.64 297.221405
28.66 289.337921
28.68 290.045532
28.70 296.172058
28.72 298.412964
28.74 294.01236
28.76 274.282898
28.78 289.635803
28.80 300.737396
28.82 301.70755
28.84 297.476654
28.86 295.463806
28.88 293.115814
28.90 299.981171
28.92 302.716553
28.94 299.788513
28.96 294.497131
28.98 288.694794
29.00 292.790344
29.02 295.856323
29.04 306.97229
29.06 302.213745
29.08 298.070404
29.10 297.675018
29.12 308.221588
29.14 305.338989
29.16 287.368683
29.18 283.263733
29.20 283.259857
29.22 285.832184
29.24 297.478241
29.26 297.793701
29.28 298.04248
29.30 293.762268
29.32 307.226746
29.34 303.036957
29.36 308.132477
29.38 302.467102
29.40 295.467743
29.42 298.765778
29.44 289.704071
29.46 294.183807
29.48 299.515656
29.50 289.205444
29.52 290.668823
29.54 301.586578
29.56 289.570862
29.58 289.13089
29.60 286.781006
29.62 297.270996
29.64 301.996246
29.66 291.029846
29.68 286.945648
29.70 278.780884
29.72 293.27533
29.74 296.120087
29.76 290.018555
29.78 294.979187
29.80 297.706909
29.82 282.216705
29.84 281.754242
29.86 287.324249
29.88 285.084808
29.90 300.865936
29.92 293.637665
29.94 278.997894
29.96 278.907196
29.98 280.957214
30.00 288.65744
30.02 289.430328
30.04 281.368439
30.06 281.326904
30.08 289.116791
30.10 297.801971
30.12 297.66806
30.14 288.162079
30.16 280.84079
30.18 286.694855
30.20 284.699005
30.22 286.828552
30.24 290.059937
30.26 299.755371
30.28 296.748505
30.30 297.703644
30.32 296.115479
30.34 289.146698
30.36 271.585022
30.38 278.887634
30.40 293.247162
30.42 297.109772
30.44 299.584198
30.46 290.373688
30.48 282.970947
30.50 290.27713
30.52 288.930359
30.54 290.598969
30.56 288.273041
30.58 291.604126
30.60 294.32486
30.62 292.619049
30.64 306.346283
30.66 302.184326
30.68 279.49707
30.70 289.20874
30.72 295.932739
30.74 284.272766
30.76 287.65152
30.78 297.859009
30.80 297.990753
30.82 309.846313
30.84 314.029846
30.86 295.028595
30.88 281.805389
30.90 283.669739
30.92 287.246826
30.94 286.63266
30.96 288.640381
30.98 296.4039
31.00 300.493927
31.02 300.712494
31.04 284.961914
31.06 288.641602
31.08 287.45459
31.10 287.981567
31.12 277.510803
31.14 286.636353
31.16 292.275787
31.18 295.824097
31.20 289.116913
31.22 292.162231
31.24 296.297333
31.26 277.566284
31.28 278.585388
31.30 292.732788
31.32 286.810638
31.34 284.462372
31.36 275.794037
31.38 276.824188
31.40 278.310974
31.42 286.618317
31.44 286.798462
31.46 291.144623
31.48 281.023743
31.50 275.13208
31.52 279.272583
31.54 288.757263
31.56 284.136536
31.58 284.477234
31.60 273.987823
31.62 271.855499
31.64 278.143341
31.66 288.559509
31.68 277.334473
31.70 269.512573
31.72 265.556335
31.74 281.939728
31.76 279.917786
31.78 284.794067
31.80 271.939911
31.82 271.617523
31.84 266.417938
31.86 267.920441
31.88 262.322937
31.90 263.267975
31.92 261.615601
31.94 260.555511
31.96 269.904175
31.98 270.061584
32.00 265.292633
32.02 266.990967
32.04 272.926666
32.06 273.854431
32.08 269.465668
32.10 269.942261
32.12 268.722473
32.14 257.147675
32.16 275.8396
32.18 271.21637
32.20 260.092346
32.22 270.122223
32.24 270.165192
32.26 274.29837
32.28 277.062012
32.30 265.972412
32.32 274.601288
32.34 274.945343
32.36 272.19873
32.38 256.364807
32.40 261.954681
32.42 263.538666
32.44 255.031464
32.46 255.583282
32.48 262.844116
32.50 271.389252
32.52 280.10144
32.54 273.073029
32.56 258.345001
32.58 258.94165
32.60 264.501312
32.62 264.2836
32.64 253.444855
32.66 250.864288
32.68 265.017609
32.70 261.312347
32.72 262.390961
32.74 263.098206
32.76 257.957642
32.78 261.544128
32.80 249.642853
32.82 245.005798
32.84 248.88208
32.86 259.901306
32.88 272.106598
32.90 260.901459
32.92 263.231476
32.94 261.890717
32.96 255.649887
32.98 253.829269
33.00 257.69281
33.02 265.334503
33.04 262.213074
33.06 252.926117
33.08 244.819565
33.10 253.173721
33.12 255.303513
33.14 260.201019
33.16 261.387756
33.18 261.776642
33.20 258.45874
33.22 264.989655
33.24 271.48703
33.26 260.295654
33.28 261.920471
33.30 253.707001
33.32 258.427551
33.34 262.856201
33.36 251.817093
33.38 259.739929
33.40 265.672516
33.42 263.532166
33.44 256.660095
33.46 260.448242
33.48 269.677765
33.50 264.694733
33.52 257.894745
33.54 262.325745
33.56 253.49469
33.58 255.980133
33.60 252.364243
33.62 254.192963
33.64 248.290253
33.66 248.46077
33.68 253.995926
33.70 251.77803
33.72 253.888794
33.74 255.167145
33.76 263.468201
33.78 261.409485
33.80 253.885086
33.82 260.557098
33.84 256.591827
33.86 250.575684
33.88 267.976868
33.90 260.716797
33.92 256.866882
33.94 254.500198
33.96 251.11145
33.98 257.080597
34.00 266.844086
34.02 255.719666
34.04 255.024628
34.06 264.429901
34.08 260.219482
34.10 267.661316
34.12 268.942108
34.14 262.148651
34.16 267.737671
34.18 268.11261
34.20 259.965424
34.22 259.244141
34.24 257.01947
34.26 274.620361
34.28 282.40741
34.30 283.199402
34.32 280.964966
34.34 275.337219
34.36 280.981384
34.38 271.737976
34.40 267.493713
34.42 276.73053
34.44 281.579742
34.46 284.885345
34.48 286.30127
34.50 288.515137
34.52 289.518219
34.54 291.702698
34.56 282.116028
34.58 286.510132
34.60 282.777435
34.62 286.758484
34.64 284.406677
34.66 275.875702
34.68 276.978363
34.70 282.356079
34.72 288.377716
34.74 285.902405
34.76 277.161987
34.78 280.564209
34.80 275.7005
34.82 272.591461
34.84 271.407288
34.86 271.083893
34.88 267.06723
34.90 263.261353
34.92 252.841644
34.94 247.139954
34.96 247.243027
34.98 242.258667
35.00 244.356201
35.02 242.015381
35.04 236.408081
35.06 237.853058
35.08 227.30188
35.10 223.250687
35.12 232.330521
35.14 246.802841
35.16 234.120239
35.18 219.088806
35.20 228.091782
35.22 222.899811
35.24 214.415253
35.26 222.463394
35.28 230.292526
35.30 217.06041
35.32 212.503662
35.34 208.981689
35.36 208.762802
35.38 214.981964
35.40 216.862366
35.42 209.545975
35.44 211.658493
35.46 218.176682
35.48 215.611298
35.50 207.186005
35.52 198.424225
35.54 205.010986
35.56 205.330215
35.58 201.544968
35.60 199.882919
35.62 196.94101
35.64 194.521851
35.66 197.613907
35.68 198.981644
35.70 204.354248
35.72 200.690323
35.74 193.509644
35.76 206.064072
35.78 193.425308
35.80 190.885361
35.82 202.946548
35.84 208.863281
35.86 208.876175
35.88 215.409103
35.90 214.379608
35.92 201.54715
35.94 204.044373
35.96 207.733643
35.98 202.330154
36.00 191.824295
36.02 183.797531
36.04 186.279602
36.06 191.404602
36.08 198.038193
36.10 199.759186
36.12 197.647415
36.14 196.417831
36.16 194.319763
36.18 199.611542
36.20 194.453842
36.22 197.130585
36.24 198.776886
36.26 189.059937
36.28 190.605988
36.30 189.102814
36.32 184.793732
36.34 183.240051
36.36 191.281708
36.38 186.101883
36.40 186.26152
36.42 191.127823
36.44 190.064331
36.46 187.812195
36.48 188.634079
36.50 194.080505
36.52 185.532806
36.54 183.103638
36.56 185.391724
36.58 184.240479
36.60 180.26474
36.62 173.490417
36.64 175.226868
36.66 179.235901
36.68 189.010712
36.70 192.511978
36.72 188.076813
36.74 190.244171
36.76 190.126755
36.78 196.598557
36.80 181.123642
36.82 170.994324
36.84 176.747192
36.86 184.829071
36.88 184.685715
36.90 183.147308
36.92 195.759842
36.94 188.007736
36.96 181.270966
36.98 179.975861
37.00 183.468567
37.02 185.226837
37.04 183.887222
37.06 174.933044
37.08 183.811295
37.10 184.710648
37.12 187.297043
37.14 188.669189
37.16 185.734009
37.18 189.612793
37.20 178.32045
37.22 168.218781
37.24 179.755875
37.26 175.999741
37.28 182.384079
37.30 179.623001
37.32 183.084351
37.34 181.674133
37.36 168.695023
37.38 171.517914
37.40 177.788132
37.42 173.595581
37.44 175.47702
37.46 181.91098
37.48 178.034882
37.50 171.064087
37.52 174.983459
37.54 184.189789
37.56 188.494186
37.58 189.903046
37.60 173.820007
37.62 179.029663
37.64 187.062592
37.66 188.511276
37.68 183.407013
37.70 184.116745
37.72 180.805862
37.74 174.718765
37.76 182.848602
37.78 191.401535
37.80 187.68045
37.82 183.30632
37.84 180.760773
37.86 173.681122
37.88 181.687439
37.90 186.759293
37.92 185.960312
37.94 187.189316
37.96 187.169174
37.98 190.97905
38.00 189.132858
38.02 186.303085
38.04 175.014572
38.06 176.421768
38.08 175.412506
38.10 170.975555
38.12 186.351166
38.14 179.32048
38.16 184.999298
38.18 179.816803
38.20 182.593506
38.22 173.980347
38.24 177.554443
38.26 179.588837
38.28 167.212326
38.30 174.574692
38.32 175.167603
38.34 171.042542
38.36 171.489395
38.38 175.087372
38.40 169.384872
38.42 173.828781
38.44 173.435364
38.46 179.213409
38.48 171.68219
38.50 168.03511
38.52 167.849991
38.54 171.726059
38.56 166.48027
38.58 167.804428
38.60 172.239487
38.62 159.4897
38.64 166.040619
38.66 173.417816
38.68 161.79866
38.70 163.711563
38.72 158.722321
38.74 167.954849
38.76 163.520691
38.78 168.337845
38.80 169.960648
38.82 156.160812
38.84 160.96283
38.86 150.057419
38.88 163.467651
38.90 164.323288
38.92 166.753189
38.94 165.809311
38.96 146.539581
38.98 150.280212
39.00 155.330414
39.02 159.439743
39.04 168.32341
39.06 161.858124
39.08 157.146805
39.10 160.04834
39.12 151.346863
39.14 144.729538
39.16 149.192596
39.18 162.611511
39.20 158.1409
39.22 150.176865
39.24 157.00795
39.26 162.336609
39.28 160.054504
39.30 156.158096
39.32 152.934952
39.34 156.486816
39.36 147.990387
39.38 146.072296
39.40 143.227448
39.42 144.095184
39.44 155.085281
39.46 148.656799
39.48 139.576935
39.50 148.865265
39.52 162.134018
39.54 157.618073
39.56 156.68721
39.58 150.784378
39.60 144.756653
39.62 144.319489
39.64 140.318832
39.66 139.839844
39.68 144.123672
39.70 138.912628
39.72 145.255249
39.74 153.903625
39.76 149.428925
39.78 148.684875
39.80 145.41301
39.82 151.624237
39.84 140.63829
39.86 145.01738
39.88 147.677887
39.90 145.542084
39.92 149.22464
39.94 139.928223
39.96 137.225433
39.98 147.97789
40.00 156.187469
