!@!!GADDS PLOTSO FILE: Chi integration type
!@!!Title/SampleName: ML_MAPbX3
!@!!User: NREL
!@!!Site: NREL SERF C211; SN 2510
!@!!Frame: C:\frames\rbelisle\MLProject\081022_MLProject_000_007.gfrm
!@!!Wavelengths    1.54184   1.54056   1.54439
!@!!Frame angles: 2Theta: 28.000 Omega: 5.000 Phi: 0.000 Chi: 90.000
!@!!Integration range: 2Theta: 10.000 to 40.000  Gamma: -135.000 to -45.000
!@!!Integration method: bin normalized
!@!N
!@!SS
!@!M
!@!L 0.0 0.0 0.0 0.0
!@!XDegrees
!@!YCounts
10.00 167.359436
10.02 167.6035
10.04 164.889236
10.06 166.566315
10.08 168.334
10.10 168.832367
10.12 174.710281
10.14 174.649094
10.16 180.211472
10.18 183.430252
10.20 180.097733
10.22 178.417984
10.24 173.098358
10.26 173.68512
10.28 181.044769
10.30 184.852692
10.32 181.091064
10.34 182.352417
10.36 177.558014
10.38 174.287369
10.40 180.738113
10.42 186.900208
10.44 181.855957
10.46 183.812958
10.48 183.396393
10.50 190.354782
10.52 184.008514
10.54 185.200333
10.56 181.434204
10.58 181.431412
10.60 190.052795
10.62 192.31488
10.64 194.221725
10.66 189.589462
10.68 191.791641
10.70 195.989227
10.72 189.611053
10.74 190.596375
10.76 190.225479
10.78 190.584351
10.80 189.366669
10.82 186.34079
10.84 186.516144
10.86 198.141449
10.88 201.075912
10.90 198.331146
10.92 202.007202
10.94 208.792618
10.96 204.769104
10.98 205.981796
11.00 201.866379
11.02 206.197586
11.04 204.130035
11.06 201.192291
11.08 202.357147
11.10 205.951614
11.12 209.135803
11.14 210.32663
11.16 209.482452
11.18 203.961929
11.20 208.388885
11.22 212.982941
11.24 209.236923
11.26 211.580597
11.28 215.094131
11.30 216.375015
11.32 213.322815
11.34 211.824265
11.36 219.465775
11.38 221.713547
11.40 222.474625
11.42 220.072159
11.44 219.294708
11.46 218.223282
11.48 219.465683
11.50 218.722214
11.52 217.22551
11.54 218.920776
11.56 225.220291
11.58 216.04599
11.60 208.361023
11.62 216.007874
11.64 219.121628
11.66 218.033722
11.68 221.222412
11.70 224.859131
11.72 229.237106
11.74 232.03331
11.76 232.51561
11.78 222.497147
11.80 226.356247
11.82 234.942795
11.84 229.599319
11.86 237.939774
11.88 239.119507
11.90 230.326691
11.92 237.268387
11.94 234.953674
11.96 232.796738
11.98 242.087143
12.00 248.114182
12.02 247.932678
12.04 248.58757
12.06 250.916367
12.08 258.534851
12.10 256.854736
12.12 249.298553
12.14 256.395203
12.16 264.05835
12.18 264.4039
12.20 267.5625
12.22 268.43396
12.24 265.857178
12.26 280.729797
12.28 283.118805
12.30 298.023346
12.32 313.034454
12.34 314.734222
12.36 306.877777
12.38 308.141968
12.40 310.608124
12.42 323.584961
12.44 325.073456
12.46 334.398987
12.48 342.420288
12.50 352.279022
12.52 343.035034
12.54 351.235199
12.56 365.385742
12.58 368.73175
12.60 368.298309
12.62 362.816071
12.64 362.405334
12.66 346.772858
12.68 340.39856
12.70 335.320313
12.72 335.791016
12.74 330.816528
12.76 322.792664
12.78 308.085815
12.80 305.97757
12.82 292.749084
12.84 294.374084
12.86 293.770203
12.88 290.124756
12.90 293.545197
12.92 293.065918
12.94 279.611053
12.96 276.780396
12.98 271.647369
13.00 268.261169
13.02 272.386841
13.04 271.548584
13.06 273.217896
13.08 274.979248
13.10 275.033844
13.12 270.098602
13.14 264.402344
13.16 258.263367
13.18 270.129089
13.20 268.92038
13.22 264.551636
13.24 263.701111
13.26 261.47937
13.28 262.291199
13.30 266.760101
13.32 271.041443
13.34 264.794037
13.36 268.612671
13.38 268.289581
13.40 267.053101
13.42 265.205444
13.44 264.062927
13.46 272.661194
13.48 271.478027
13.50 268.254639
13.52 266.689087
13.54 268.995148
13.56 268.560089
13.58 263.831726
13.60 279.682678
13.62 279.931702
13.64 285.819305
13.66 288.956543
13.68 288.063324
13.70 294.772003
13.72 295.296539
13.74 295.095367
13.76 306.359436
13.78 297.706268
13.80 308.266998
13.82 312.69046
13.84 311.514191
13.86 320.322296
13.88 323.798737
13.90 334.728424
13.92 343.35907
13.94 352.717957
13.96 349.823059
13.98 360.240295
14.00 377.752716
14.02 379.226776
14.04 396.398865
14.06 402.008759
14.08 415.051727
14.10 436.934998
14.12 462.221771
14.14 493.802216
14.16 499.592773
14.18 517.139038
14.20 536.978516
14.22 571.702942
14.24 612.567627
14.26 646.340088
14.28 666.062439
14.30 696.997253
14.32 730.524597
14.34 776.568909
14.36 815.933167
14.38 841.030334
14.40 858.750244
14.42 873.605652
14.44 888.212463
14.46 897.212891
14.48 891.113464
14.50 865.537842
14.52 832.742432
14.54 811.361694
14.56 779.053772
14.58 718.027649
14.60 679.728394
14.62 634.117249
14.64 601.040649
14.66 552.714844
14.68 512.140259
14.70 479.076416
14.72 459.928192
14.74 449.110535
14.76 429.856232
14.78 400.319092
14.80 399.221893
14.82 386.476654
14.84 372.652771
14.86 360.584991
14.88 346.471313
14.90 337.727631
14.92 330.535583
14.94 340.169067
14.96 333.608185
14.98 326.608612
15.00 326.201782
15.02 335.525635
15.04 327.779663
15.06 319.816772
15.08 325.226257
15.10 316.514221
15.12 314.473877
15.14 318.114624
15.16 305.943054
15.18 300.632477
15.20 304.90863
15.22 308.544861
15.24 309.747162
15.26 302.403168
15.28 301.305908
15.30 299.40213
15.32 304.025757
15.34 294.80603
15.36 298.607452
15.38 302.439819
15.40 302.065796
15.42 306.378479
15.44 311.339355
15.46 307.342072
15.48 310.569519
15.50 308.793182
15.52 304.963348
15.54 306.491638
15.56 310.276733
15.58 303.289795
15.60 298.837585
15.62 295.317993
15.64 303.852753
15.66 309.914093
15.68 308.788666
15.70 304.05481
15.72 312.677368
15.74 305.437805
15.76 309.975525
15.78 313.03067
15.80 311.698212
15.82 307.989899
15.84 312.226135
15.86 309.335754
15.88 303.457764
15.90 311.687531
15.92 311.377045
15.94 306.183594
15.96 315.550812
15.98 311.607788
16.00 298.130035
16.02 303.983337
16.04 308.848999
16.06 311.027496
16.08 310.408691
16.10 321.596527
16.12 320.215668
16.14 321.386414
16.16 317.295532
16.18 322.957397
16.20 315.732605
16.22 316.851074
16.24 318.387756
16.26 317.927002
16.28 315.481689
16.30 317.80014
16.32 323.170319
16.34 325.721008
16.36 319.191132
16.38 318.397186
16.40 322.657074
16.42 313.378021
16.44 321.288818
16.46 321.548737
16.48 314.290649
16.50 320.358948
16.52 321.97757
16.54 326.789307
16.56 325.069702
16.58 320.915375
16.60 321.957703
16.62 312.921692
16.64 314.040253
16.66 324.947449
16.68 328.944153
16.70 326.812195
16.72 324.165466
16.74 321.888123
16.76 326.810242
16.78 333.554657
16.80 335.649689
16.82 327.077728
16.84 321.382996
16.86 327.65567
16.88 333.021851
16.90 340.826416
16.92 342.799774
16.94 337.437653
16.96 333.99118
16.98 337.353485
17.00 335.834595
17.02 333.330872
17.04 334.445953
17.06 339.029907
17.08 338.08139
17.10 335.437164
17.12 327.181091
17.14 333.554321
17.16 339.174835
17.18 342.132324
17.20 347.702118
17.22 345.925476
17.24 341.588959
17.26 346.881714
17.28 343.271912
17.30 346.954376
17.32 351.890503
17.34 346.931732
17.36 342.067627
17.38 344.592957
17.40 358.454559
17.42 353.198883
17.44 342.899658
17.46 348.150604
17.48 350.126404
17.50 348.689911
17.52 353.513458
17.54 352.263123
17.56 353.815826
17.58 357.267761
17.60 354.45517
17.62 354.454834
17.64 344.895233
17.66 359.72052
17.68 359.798492
17.70 354.620789
17.72 354.695984
17.74 354.162079
17.76 362.185547
17.78 352.488892
17.80 355.130127
17.82 368.241241
17.84 370.377045
17.86 361.663635
17.88 362.936798
17.90 364.608643
17.92 367.10788
17.94 370.305817
17.96 368.963013
17.98 360.172668
18.00 374.507324
18.02 372.443207
18.04 372.465057
18.06 370.637482
18.08 376.453644
18.10 366.834808
18.12 369.200806
18.14 371.677063
18.16 376.376587
18.18 382.221497
18.20 380.442505
18.22 375.29303
18.24 385.60495
18.26 387.562531
18.28 386.100555
18.30 383.320831
18.32 369.066895
18.34 373.492981
18.36 382.088623
18.38 385.171997
18.40 386.81781
18.42 384.402557
18.44 385.851654
18.46 382.646362
18.48 379.835388
18.50 387.352844
18.52 387.833282
18.54 375.42746
18.56 377.477692
18.58 379.780487
18.60 380.676147
18.62 381.82663
18.64 391.88031
18.66 393.7388
18.68 385.934662
18.70 388.615204
18.72 400.352051
18.74 398.389343
18.76 389.663788
18.78 392.750122
18.80 399.235077
18.82 391.57019
18.84 391.683563
18.86 397.126678
18.88 404.596527
18.90 407.088684
18.92 407.913422
18.94 398.222931
18.96 403.919495
18.98 407.35318
19.00 404.12207
19.02 404.598724
19.04 410.147308
19.06 419.848236
19.08 420.072601
19.10 412.951538
19.12 414.895142
19.14 412.516418
19.16 409.987061
19.18 415.175751
19.20 410.757172
19.22 404.836731
19.24 414.346771
19.26 425.544403
19.28 421.608124
19.30 410.204895
19.32 413.370605
19.34 418.605499
19.36 420.895111
19.38 423.74527
19.40 432.576385
19.42 427.80957
19.44 422.425171
19.46 420.324219
19.48 425.157104
19.50 432.874878
19.52 433.897736
19.54 434.616699
19.56 430.244751
19.58 434.451874
19.60 427.588165
19.62 430.757019
19.64 435.508301
19.66 438.313873
19.68 437.597504
19.70 435.435333
19.72 443.172729
19.74 441.565399
19.76 438.521332
19.78 442.362915
19.80 436.438934
19.82 444.078857
19.84 450.602356
19.86 452.401947
19.88 456.841827
19.90 447.800537
19.92 453.402222
19.94 464.348328
19.96 460.430176
19.98 456.04245
20.00 457.572693
20.02 454.518677
20.04 451.176361
20.06 452.683197
20.08 454.317413
20.10 457.892242
20.12 463.542725
20.14 468.281616
20.16 468.929108
20.18 475.205261
20.20 471.215942
20.22 468.33197
20.24 473.675354
20.26 479.302368
20.28 478.252472
20.30 474.188232
20.32 466.989532
20.34 473.374634
20.36 472.896454
20.38 470.10083
20.40 474.046753
20.42 480.594086
20.44 484.937317
20.46 486.6362
20.48 482.660919
20.50 487.022552
20.52 480.418152
20.54 491.761932
20.56 491.378113
20.58 487.816376
20.60 493.273651
20.62 493.737396
20.64 491.16098
20.66 486.65921
20.68 488.158234
20.70 492.934479
20.72 497.351776
20.74 491.279022
20.76 496.084564
20.78 491.398193
20.80 497.365753
20.82 492.309326
20.84 494.079102
20.86 493.172394
20.88 498.498291
20.90 501.184113
20.92 490.777405
20.94 490.009583
20.96 490.994873
20.98 494.326813
21.00 498.354095
21.02 498.66098
21.04 503.155304
21.06 496.821747
21.08 495.355469
21.10 499.45108
21.12 500.868958
21.14 499.607544
21.16 501.57196
21.18 496.08316
21.20 498.473053
21.22 504.667175
21.24 502.898956
21.26 502.76889
21.28 505.835938
21.30 502.584625
21.32 506.973267
21.34 511.963379
21.36 509.478394
21.38 512.456848
21.40 518.223328
21.42 511.932129
21.44 516.810791
21.46 527.326294
21.48 522.166199
21.50 513.520081
21.52 509.31488
21.54 515.438782
21.56 521.401306
21.58 514.06897
21.60 512.308289
21.62 514.194702
21.64 515.425049
21.66 513.577881
21.68 510.119019
21.70 509.711517
21.72 518.804688
21.74 515.842346
21.76 517.206421
21.78 521.972168
21.80 518.610229
21.82 524.66272
21.84 527.313232
21.86 525.232849
21.88 520.280212
21.90 530.631042
21.92 540.757874
21.94 538.057861
21.96 530.43927
21.98 530.493408
22.00 530.289917
22.02 538.426147
22.04 534.112671
22.06 535.823425
22.08 534.761536
22.10 529.786621
22.12 530.529358
22.14 533.798279
22.16 539.9198
22.18 543.180115
22.20 543.012878
22.22 535.465332
22.24 528.056763
22.26 545.11145
22.28 549.486328
22.30 546.682861
22.32 550.977966
22.34 550.744629
22.36 549.740723
22.38 553.379028
22.40 562.156128
22.42 540.334778
22.44 547.385803
22.46 547.705627
22.48 552.76825
22.50 557.373413
22.52 560.414185
22.54 561.470398
22.56 568.751221
22.58 556.616394
22.60 553.871033
22.62 564.192017
22.64 562.935913
22.66 559.949646
22.68 554.839905
22.70 553.902222
22.72 557.87146
22.74 563.141479
22.76 561.742798
22.78 567.419373
22.80 566.076233
22.82 572.198608
22.84 565.951172
22.86 555.199402
22.88 561.044495
22.90 561.827881
22.92 560.859497
22.94 569.256226
22.96 578.147827
22.98 574.585754
23.00 565.188293
23.02 558.082336
23.04 568.158203
23.06 573.24408
23.08 571.022339
23.10 578.983093
23.12 573.762451
23.14 584.85199
23.16 586.613892
23.18 578.379517
23.20 577.580811
23.22 574.718018
23.24 578.742676
23.26 585.474487
23.28 581.651306
23.30 576.3302
23.32 585.588745
23.34 586.632263
23.36 572.457092
23.38 571.454712
23.40 584.559937
23.42 580.51123
23.44 577.328857
23.46 582.610107
23.48 581.512756
23.50 580.324951
23.52 578.164612
23.54 576.440308
23.56 577.002136
23.58 574.634949
23.60 588.753174
23.62 587.031555
23.64 582.274719
23.66 580.239319
23.68 577.313538
23.70 578.686035
23.72 588.762817
23.74 597.481689
23.76 593.863525
23.78 592.559143
23.80 580.932556
23.82 582.679688
23.84 588.130249
23.86 589.55127
23.88 593.082153
23.90 590.765991
23.92 582.972229
23.94 583.398865
23.96 587.617065
23.98 592.818787
24.00 587.84082
24.02 589.347717
24.04 595.239075
24.06 594.864563
24.08 589.82074
24.10 595.199768
24.12 595.205444
24.14 595.03894
24.16 585.215454
24.18 578.54895
24.20 579.2547
24.22 585.756409
24.24 587.477417
24.26 599.657654
24.28 603.050659
24.30 600.122192
24.32 597.363342
24.34 599.032837
24.36 598.2854
24.38 598.392944
24.40 605.28656
24.42 597.322876
24.44 595.637939
24.46 593.586182
24.48 588.578735
24.50 593.312256
24.52 599.730469
24.54 604.668091
24.56 605.75647
24.58 603.949951
24.60 601.40741
24.62 605.830566
24.64 604.427429
24.66 602.08551
24.68 604.325134
24.70 599.657471
24.72 600.204163
24.74 601.008728
24.76 595.689636
24.78 593.774658
24.80 589.860352
24.82 592.226929
24.84 598.164795
24.86 605.416992
24.88 605.157471
24.90 597.85675
24.92 595.306458
24.94 605.492188
24.96 605.587769
24.98 602.173279
25.00 593.840759
25.02 598.758301
25.04 591.696045
25.06 595.113708
25.08 598.572937
25.10 601.343567
25.12 602.785583
25.14 601.532043
25.16 595.795105
25.18 599.299194
25.20 613.689575
25.22 615.295227
25.24 605.662903
25.26 611.922302
25.28 621.781067
25.30 620.220581
25.32 611.360901
25.34 611.267761
25.36 615.415039
25.38 615.812622
25.40 608.584229
25.42 612.367371
25.44 608.263428
25.46 595.849365
25.48 604.172913
25.50 608.273865
25.52 607.704468
25.54 614.864685
25.56 604.232422
25.58 608.48822
25.60 609.290588
25.62 606.899109
25.64 604.911255
25.66 616.618042
25.68 619.121338
25.70 610.211121
25.72 601.057251
25.74 600.053284
25.76 597.333618
25.78 607.321472
25.80 613.886414
25.82 611.492798
25.84 611.244324
25.86 607.509094
25.88 602.184265
25.90 607.251831
25.92 615.996704
25.94 610.037659
25.96 608.640564
25.98 601.995483
26.00 593.709106
26.02 604.999939
26.04 608.885437
26.06 598.501038
26.08 606.991638
26.10 604.209473
26.12 604.817078
26.14 606.36084
26.16 607.744324
26.18 603.592957
26.20 610.882629
26.22 613.104187
26.24 612.270935
26.26 607.26947
26.28 599.616455
26.30 602.620178
26.32 594.89978
26.34 591.854065
26.36 601.840454
26.38 610.125916
26.40 603.669006
26.42 596.020752
26.44 600.335205
26.46 601.740723
26.48 609.604553
26.50 607.535156
26.52 613.940674
26.54 607.123657
26.56 602.043762
26.58 597.993896
26.60 604.969116
26.62 600.831604
26.64 598.749695
26.66 604.920959
26.68 607.304932
26.70 598.951782
26.72 594.838562
26.74 599.056641
26.76 604.519043
26.78 596.442627
26.80 604.363525
26.82 599.620728
26.84 600.508911
26.86 603.154236
26.88 610.914551
26.90 605.415222
26.92 605.543152
26.94 602.545349
26.96 599.449402
26.98 598.15155
27.00 594.948242
27.02 601.345825
27.04 600.349121
27.06 598.396606
27.08 605.185852
27.10 607.156433
27.12 608.583618
27.14 607.857971
27.16 600.571167
27.18 595.431152
27.20 593.536316
27.22 598.893555
27.24 592.623657
27.26 593.331421
27.28 595.418152
27.30 603.217651
27.32 607.821838
27.34 603.274902
27.36 603.199402
27.38 601.9823
27.40 595.432251
27.42 600.243774
27.44 602.420776
27.46 600.265869
27.48 598.003174
27.50 599.095337
27.52 606.687561
27.54 601.519653
27.56 605.062561
27.58 610.486511
27.60 606.784546
27.62 602.331482
27.64 596.041687
27.66 600.005859
27.68 598.26123
27.70 597.7453
27.72 601.682495
27.74 606.010864
27.76 604.889893
27.78 598.452393
27.80 606.723267
27.82 606.480652
27.84 603.687073
27.86 605.346558
27.88 611.399719
27.90 612.074158
27.92 611.46698
27.94 608.397583
27.96 603.032104
27.98 606.877808
28.00 612.537415
28.02 602.968811
28.04 598.164673
28.06 602.869568
28.08 604.311035
28.10 604.504822
28.12 607.799194
28.14 606.12207
28.16 604.19519
28.18 607.842957
28.20 611.851868
28.22 604.157288
28.24 602.443115
28.26 606.515259
28.28 602.168884
28.30 609.484192
28.32 609.779175
28.34 607.573853
28.36 606.180847
28.38 608.396179
28.40 603.37616
28.42 608.611145
28.44 611.944763
28.46 608.276306
28.48 606.784363
28.50 605.989929
28.52 600.299255
28.54 597.63269
28.56 599.682251
28.58 610.334229
28.60 618.499207
28.62 616.916504
28.64 617.818909
28.66 621.985657
28.68 624.508911
28.70 626.598816
28.72 632.488647
28.74 633.303711
28.76 638.937073
28.78 647.87915
28.80 656.190979
28.82 660.953064
28.84 667.785522
28.86 674.101318
28.88 682.258972
28.90 696.710571
28.92 728.892212
28.94 743.987854
28.96 758.529419
28.98 775.350708
29.00 788.738831
29.02 805.754944
29.04 824.301941
29.06 840.99585
29.08 852.241272
29.10 879.745605
29.12 886.308289
29.14 883.412109
29.16 891.229004
29.18 887.139343
29.20 867.716614
29.22 862.294189
29.24 850.745605
29.26 837.763733
29.28 824.313599
29.30 810.970825
29.32 785.128723
29.34 767.467224
29.36 749.939453
29.38 736.350037
29.40 721.175171
29.42 705.660095
29.44 684.904114
29.46 674.896729
29.48 673.941711
29.50 665.216187
29.52 649.217468
29.54 635.77478
29.56 639.897949
29.58 632.440369
29.60 624.15448
29.62 618.93689
29.64 609.948364
29.66 596.94574
29.68 605.603821
29.70 608.312744
29.72 601.21582
29.74 592.0896
29.76 593.640076
29.78 595.779114
29.80 591.937988
29.82 588.430786
29.84 582.543335
29.86 581.327332
29.88 580.340271
29.90 582.444885
29.92 572.776489
29.94 563.777649
29.96 566.697937
29.98 572.754883
30.00 575.056519
30.02 570.775391
30.04 561.780518
30.06 575.264648
30.08 572.226929
30.10 571.430481
30.12 565.658264
30.14 564.722778
30.16 561.236572
30.18 565.840088
30.20 557.993408
30.22 555.752258
30.24 559.105774
30.26 555.539612
30.28 554.186157
30.30 565.661072
30.32 561.172791
30.34 557.63147
30.36 557.110657
30.38 550.67041
30.40 544.120911
30.42 550.826721
30.44 551.988953
30.46 557.427795
30.48 561.131531
30.50 546.127563
30.52 538.192688
30.54 547.235901
30.56 554.834412
30.58 557.027222
30.60 550.546448
30.62 548.914185
30.64 545.56189
30.66 539.515137
30.68 532.669556
30.70 545.498352
30.72 544.387939
30.74 539.019775
30.76 537.981628
30.78 536.035156
30.80 537.315491
30.82 545.702332
30.84 539.41748
30.86 541.317932
30.88 543.7052
30.90 543.938049
30.92 540.760376
30.94 537.078735
30.96 539.88739
30.98 537.76239
31.00 535.070984
31.02 536.849121
31.04 533.802307
31.06 544.033936
31.08 529.275208
31.10 526.552307
31.12 524.73938
31.14 525.597961
31.16 532.449036
31.18 525.68634
31.20 522.945374
31.22 520.471619
31.24 525.789856
31.26 518.901917
31.28 522.586548
31.30 522.892822
31.32 524.80127
31.34 520.806396
31.36 521.28418
31.38 522.613281
31.40 510.481293
31.42 512.629272
31.44 512.808838
31.46 517.173035
31.48 515.079163
31.50 515.390564
31.52 518.310974
31.54 520.461853
31.56 524.622009
31.58 515.125977
31.60 512.494568
31.62 516.212585
31.64 507.886047
31.66 507.632935
31.68 518.85553
31.70 515.382446
31.72 509.594269
31.74 514.442322
31.76 515.773438
31.78 513.915161
31.80 523.204407
31.82 521.188965
31.84 510.32074
31.86 513.379578
31.88 510.914459
31.90 512.779297
31.92 518.841736
31.94 519.500305
31.96 513.949829
31.98 515.247131
32.00 528.449829
32.02 527.123657
32.04 523.838684
32.06 529.511353
32.08 524.047302
32.10 524.760437
32.12 525.32666
32.14 520.236816
32.16 522.673401
32.18 522.214661
32.20 530.017334
32.22 526.16095
32.24 524.911011
32.26 535.276428
32.28 539.779602
32.30 542.231384
32.32 548.16449
32.34 547.57959
32.36 543.466248
32.38 554.465271
32.40 556.253723
32.42 551.307861
32.44 551.581848
32.46 562.141296
32.48 564.918213
32.50 567.087402
32.52 559.440552
32.54 564.17334
32.56 570.918823
32.58 571.348145
32.60 574.264526
32.62 569.414612
32.64 574.461426
32.66 568.967896
32.68 574.471375
32.70 574.607605
32.72 577.367676
32.74 580.282959
32.76 577.16272
32.78 560.61377
32.80 560.374268
32.82 566.728271
32.84 564.468262
32.86 556.705811
32.88 556.013184
32.90 559.19696
32.92 543.845032
32.94 536.021179
32.96 541.637085
32.98 543.247803
33.00 541.518799
33.02 536.160828
33.04 529.389587
33.06 526.018372
33.08 522.000244
33.10 521.870789
33.12 518.732239
33.14 519.50531
33.16 509.65332
33.18 510.369568
33.20 508.516449
33.22 512.135132
33.24 510.659973
33.26 505.607147
33.28 505.815552
33.30 500.072815
33.32 495.839294
33.34 489.69342
33.36 487.015228
33.38 487.048248
33.40 486.789612
33.42 481.092712
33.44 478.626678
33.46 482.111938
33.48 489.692322
33.50 484.649445
33.52 482.050964
33.54 484.554718
33.56 486.536896
33.58 477.581604
33.60 474.474884
33.62 482.503815
33.64 484.665283
33.66 479.120148
33.68 475.284607
33.70 469.707214
33.72 468.843506
33.74 468.975891
33.76 467.088593
33.78 467.906586
33.80 470.660706
33.82 470.380402
33.84 468.655701
33.86 464.470062
33.88 468.136108
33.90 464.604187
33.92 457.990479
33.94 457.766388
33.96 465.01416
33.98 463.527893
34.00 458.20517
34.02 459.521088
34.04 455.283691
34.06 458.810547
34.08 460.695923
34.10 456.555054
34.12 451.110229
34.14 454.422729
34.16 457.582886
34.18 455.272156
34.20 455.121094
34.22 454.031921
34.24 456.836243
34.26 457.94278
34.28 456.182709
34.30 457.130951
34.32 453.178497
34.34 451.830688
34.36 452.939178
34.38 440.958618
34.40 447.636963
34.42 448.855621
34.44 447.605255
34.46 448.010101
34.48 443.597931
34.50 439.545532
34.52 448.332947
34.54 443.683624
34.56 438.566315
34.58 437.139404
34.60 439.916565
34.62 439.474121
34.64 444.957092
34.66 439.361267
34.68 433.921692
34.70 438.49881
34.72 433.429474
34.74 433.926941
34.76 437.918243
34.78 435.065399
34.80 428.278015
34.82 425.350677
34.84 436.150787
34.86 433.536926
34.88 439.78891
34.90 434.331512
34.92 430.811554
34.94 435.13858
34.96 431.709595
34.98 426.37796
35.00 429.374664
35.02 424.924438
35.04 426.990845
35.06 425.567413
35.08 427.127411
35.10 428.32135
35.12 424.056519
35.14 426.200043
35.16 429.830078
35.18 426.978851
35.20 423.188568
35.22 419.988281
35.24 422.548615
35.26 425.550354
35.28 417.012634
35.30 418.241608
35.32 422.467438
35.34 419.383636
35.36 413.639191
35.38 409.161499
35.40 412.428802
35.42 427.552795
35.44 425.704651
35.46 420.168091
35.48 420.217072
35.50 413.288605
35.52 414.766083
35.54 415.369293
35.56 418.053009
35.58 414.283783
35.60 405.526886
35.62 407.394653
35.64 418.796021
35.66 420.77298
35.68 413.458405
35.70 409.014832
35.72 413.115051
35.74 404.575073
35.76 406.607788
35.78 414.200836
35.80 412.972046
35.82 413.012726
35.84 403.897827
35.86 407.021301
35.88 409.617126
35.90 410.096252
35.92 406.994385
35.94 406.383636
35.96 405.993347
35.98 405.856415
36.00 404.796967
36.02 403.827362
36.04 404.291168
36.06 403.197479
36.08 397.445343
36.10 395.095398
36.12 402.914185
36.14 399.242676
36.16 392.496735
36.18 396.75473
36.20 400.910583
36.22 394.647247
36.24 391.498352
36.26 396.840851
36.28 396.037598
36.30 395.310394
36.32 390.622162
36.34 394.04126
36.36 394.504944
36.38 380.09903
36.40 375.517029
36.42 383.546173
36.44 386.562744
36.46 389.528687
36.48 389.168457
36.50 383.183289
36.52 383.016754
36.54 384.178986
36.56 381.806915
36.58 381.531433
36.60 384.599457
36.62 379.319458
36.64 378.736938
36.66 380.506073
36.68 379.182709
36.70 382.879974
36.72 384.63504
36.74 376.990051
36.76 373.649811
36.78 371.138947
36.80 361.758881
36.82 371.18042
36.84 371.713959
36.86 371.435638
36.88 366.204071
36.90 366.014374
36.92 369.692688
36.94 376.7995
36.96 369.293732
36.98 367.301819
37.00 369.420258
37.02 365.395599
37.04 369.117981
37.06 374.682159
37.08 371.330444
37.10 361.599884
37.12 355.575592
37.14 352.975098
37.16 355.390869
37.18 359.238342
37.20 363.521851
37.22 366.253204
37.24 368.369537
37.26 365.060822
37.28 360.382538
37.30 356.316925
37.32 358.734314
37.34 361.612366
37.36 357.686127
37.38 357.486755
37.40 356.717285
37.42 349.349396
37.44 349.480377
37.46 354.393005
37.48 359.078644
37.50 364.594269
37.52 355.950043
37.54 356.236847
37.56 359.875366
37.58 361.723206
37.60 355.600311
37.62 350.912048
37.64 352.134491
37.66 356.342896
37.68 356.005737
37.70 352.251801
37.72 353.754028
37.74 346.640015
37.76 350.260132
37.78 344.94632
37.80 347.729828
37.82 345.689301
37.84 349.430511
37.86 349.754333
37.88 351.394531
37.90 346.853821
37.92 353.733429
37.94 354.119537
37.96 344.095703
37.98 338.484375
38.00 346.079987
38.02 344.824432
38.04 347.126648
38.06 347.072083
38.08 341.237579
38.10 344.520874
38.12 343.518524
38.14 346.661499
38.16 342.027679
38.18 341.945313
38.20 349.672089
38.22 347.741669
38.24 346.621155
38.26 339.2883
38.28 343.333466
38.30 341.10141
38.32 346.395691
38.34 344.469086
38.36 346.443787
38.38 339.892273
38.40 343.039825
38.42 345.335419
38.44 344.998932
38.46 344.173126
38.48 352.273682
38.50 355.385468
38.52 345.328583
38.54 342.274994
38.56 348.419739
38.58 347.405701
38.60 350.132202
38.62 344.922577
38.64 334.698669
38.66 342.236115
38.68 345.560486
38.70 340.75946
38.72 335.307892
38.74 332.469757
38.76 334.150055
38.78 332.886566
38.80 334.909607
38.82 335.943085
38.84 327.451569
38.86 327.775055
38.88 324.302734
38.90 329.489227
38.92 337.420227
38.94 329.57486
38.96 325.189636
38.98 326.585266
39.00 332.464569
39.02 322.08374
39.04 323.154724
39.06 327.864838
39.08 327.333984
39.10 331.543335
39.12 331.487946
39.14 323.940796
39.16 322.538239
39.18 326.241058
39.20 327.537872
39.22 322.778656
39.24 324.143646
39.26 326.478485
39.28 323.507385
39.30 319.818512
39.32 322.361816
39.34 320.713501
39.36 322.7789
39.38 323.981781
39.40 317.555328
39.42 313.058594
39.44 326.869812
39.46 322.680786
39.48 321.265961
39.50 318.223114
39.52 314.146423
39.54 315.679199
39.56 314.765778
39.58 326.443298
39.60 323.121613
39.62 315.6315
39.64 316.010162
39.66 319.835907
39.68 318.037994
39.70 318.238159
39.72 318.832092
39.74 309.576141
39.76 308.455353
39.78 315.084839
39.80 312.332428
39.82 305.440063
39.84 307.986298
39.86 310.978119
39.88 307.360046
39.90 307.407074
39.92 308.501648
39.94 315.004547
39.96 309.812592
39.98 310.477264
40.00 306.733154
