!@!!GADDS PLOTSO FILE: Chi integration type
!@!!Title/SampleName: ML_MAPbX3
!@!!User: NREL
!@!!Site: NREL SERF C211; SN 2510
!@!!Frame: 081022_MLProject_000_011.gfrm
!@!!Wavelengths    1.54184   1.54056   1.54439
!@!!Frame angles: 2Theta: 28.000 Omega: 5.000 Phi: 0.000 Chi: 90.000
!@!!Integration range: 2Theta: 10.000 to 40.000  Gamma: -135.000 to -45.000
!@!!Integration method: bin normalized
!@!N
!@!SS
!@!M
!@!L 0.0 0.0 0.0 0.0
!@!XDegrees
!@!YCounts
10.00 166.630035
10.02 163.435333
10.04 171.221024
10.06 169.284332
10.08 160.83786
10.10 166.84639
10.12 172.492371
10.14 170.203995
10.16 176.592133
10.18 181.967728
10.20 186.051743
10.22 173.23587
10.24 181.013947
10.26 178.867386
10.28 179.865234
10.30 176.515823
10.32 176.687592
10.34 171.079208
10.36 170.343048
10.38 167.058868
10.40 178.8741
10.42 185.087296
10.44 181.052734
10.46 184.033295
10.48 184.168701
10.50 186.357117
10.52 184.930618
10.54 189.078476
10.56 189.351242
10.58 185.319153
10.60 180.423111
10.62 178.871445
10.64 189.152359
10.66 183.056061
10.68 187.824646
10.70 186.966125
10.72 182.573685
10.74 190.306793
10.76 198.32695
10.78 196.045258
10.80 193.504486
10.82 200.920395
10.84 203.395309
10.86 201.497894
10.88 197.994659
10.90 192.401108
10.92 195.013184
10.94 191.464981
10.96 203.81958
10.98 207.052689
11.00 193.877457
11.02 205.492477
11.04 205.954666
11.06 203.140625
11.08 198.343918
11.10 200.941696
11.12 197.252777
11.14 203.788055
11.16 200.891876
11.18 198.245377
11.20 201.308777
11.22 199.126511
11.24 199.97789
11.26 199.495499
11.28 205.882401
11.30 217.608582
11.32 209.49205
11.34 203.257492
11.36 218.030014
11.38 204.755905
11.40 208.758392
11.42 207.664444
11.44 211.404968
11.46 215.260696
11.48 218.673553
11.50 216.57991
11.52 213.364532
11.54 217.55423
11.56 208.636581
11.58 211.666168
11.60 218.160858
11.62 224.748764
11.64 212.722824
11.66 210.677673
11.68 218.594345
11.70 230.281631
11.72 221.411514
11.74 217.238556
11.76 216.390945
11.78 220.298828
11.80 221.607788
11.82 223.680267
11.84 224.623108
11.86 218.543839
11.88 222.357071
11.90 226.95285
11.92 226.758087
11.94 223.793152
11.96 225.788818
11.98 230.414627
12.00 218.283768
12.02 215.572678
12.04 222.699661
12.06 222.768784
12.08 221.041473
12.10 231.552216
12.12 240.14769
12.14 227.993881
12.16 232.392044
12.18 230.419785
12.20 222.679825
12.22 230.176971
12.24 236.724045
12.26 233.672897
12.28 222.937378
12.30 225.632629
12.32 229.32579
12.34 238.206558
12.36 234.229828
12.38 242.67865
12.40 238.059967
12.42 232.371948
12.44 233.976791
12.46 237.202713
12.48 238.486145
12.50 240.165222
12.52 238.378906
12.54 239.851929
12.56 243.25145
12.58 254.980103
12.60 250.178696
12.62 246.531235
12.64 250.074646
12.66 242.396317
12.68 237.080078
12.70 245.316925
12.72 241.412933
12.74 238.4319
12.76 247.209763
12.78 240.409729
12.80 238.414429
12.82 247.774582
12.84 254.856979
12.86 248.507492
12.88 244.442215
12.90 248.071625
12.92 250.48613
12.94 247.717773
12.96 252.983932
12.98 256.031189
13.00 253.371384
13.02 253.310577
13.04 251.044495
13.06 246.813065
13.08 242.694931
13.10 251.101379
13.12 251.444397
13.14 240.744186
13.16 251.436371
13.18 254.579483
13.20 252.935455
13.22 250.606857
13.24 248.643677
13.26 260.523224
13.28 264.486633
13.30 260.023438
13.32 261.536713
13.34 269.530151
13.36 264.012817
13.38 261.108246
13.40 259.823792
13.42 268.335571
13.44 262.854431
13.46 263.427612
13.48 269.287964
13.50 269.318817
13.52 258.426514
13.54 259.30014
13.56 271.332123
13.58 268.044342
13.60 269.152191
13.62 270.528229
13.64 263.672821
13.66 264.937805
13.68 264.327118
13.70 268.790924
13.72 267.440765
13.74 268.922394
13.76 263.963226
13.78 262.044586
13.80 269.780792
13.82 261.874725
13.84 275.163666
13.86 274.775848
13.88 272.960602
13.90 273.786102
13.92 275.850983
13.94 273.281769
13.96 272.841278
13.98 281.746857
14.00 277.61618
14.02 275.140289
14.04 278.243744
14.06 275.247986
14.08 274.915924
14.10 275.486725
14.12 285.496307
14.14 280.562347
14.16 272.970795
14.18 276.601105
14.20 281.629608
14.22 282.11145
14.24 279.4245
14.26 283.104767
14.28 291.524353
14.30 288.58252
14.32 291.420288
14.34 288.125488
14.36 292.412567
14.38 293.621185
14.40 300.050568
14.42 299.343048
14.44 299.254303
14.46 304.763123
14.48 311.206696
14.50 312.898865
14.52 326.553223
14.54 327.398712
14.56 332.508972
14.58 336.015167
14.60 341.509766
14.62 345.37796
14.64 357.796936
14.66 371.373413
14.68 375.033905
14.70 381.946014
14.72 398.377075
14.74 413.191437
14.76 421.934204
14.78 432.239746
14.80 442.282959
14.82 472.311005
14.84 495.594238
14.86 506.11618
14.88 519.694946
14.90 556.608643
14.92 575.230408
14.94 592.328369
14.96 617.038147
14.98 653.805237
15.00 677.326721
15.02 708.181824
15.04 738.076721
15.06 771.097839
15.08 802.594238
15.10 823.404663
15.12 842.851563
15.14 850.545959
15.16 845.029175
15.18 837.766663
15.20 827.386475
15.22 800.310303
15.24 769.86438
15.26 723.325012
15.28 674.726807
15.30 620.775146
15.32 582.209167
15.34 539.96167
15.36 508.146729
15.38 478.711975
15.40 446.291168
15.42 420.219482
15.44 405.614655
15.46 388.557159
15.48 378.654938
15.50 365.975372
15.52 351.565552
15.54 344.814209
15.56 341.843048
15.58 344.906403
15.60 331.329559
15.62 327.964844
15.64 337.072998
15.66 338.817535
15.68 333.162903
15.70 329.127899
15.72 334.505585
15.74 328.602112
15.76 325.93988
15.78 320.503265
15.80 324.420105
15.82 330.946655
15.84 326.447693
15.86 330.691956
15.88 324.979218
15.90 327.457672
15.92 328.749908
15.94 323.994568
15.96 328.15097
15.98 320.34259
16.00 322.844513
16.02 322.282745
16.04 322.885376
16.06 322.367126
16.08 319.540405
16.10 325.5466
16.12 318.324921
16.14 325.394897
16.16 328.857483
16.18 330.765564
16.20 322.912933
16.22 314.264984
16.24 323.770599
16.26 316.50177
16.28 317.804413
16.30 332.15155
16.32 331.006317
16.34 335.171326
16.36 331.704346
16.38 326.405945
16.40 325.597717
16.42 332.777405
16.44 336.88089
16.46 326.153961
16.48 321.462646
16.50 321.851898
16.52 317.696472
16.54 328.835236
16.56 328.50882
16.58 323.616608
16.60 335.350586
16.62 338.508087
16.64 335.677032
16.66 330.688782
16.68 334.314636
16.70 341.894867
16.72 337.019806
16.74 333.707275
16.76 337.141693
16.78 338.211853
16.80 336.122375
16.82 336.453491
16.84 339.506226
16.86 344.418304
16.88 344.081116
16.90 339.444061
16.92 343.223602
16.94 343.063354
16.96 340.866028
16.98 333.328644
17.00 334.829803
17.02 342.103271
17.04 335.975342
17.06 339.551239
17.08 349.288055
17.10 348.737213
17.12 350.011719
17.14 349.374817
17.16 350.328094
17.18 349.596039
17.20 348.619995
17.22 347.02951
17.24 341.985565
17.26 350.274017
17.28 350.681519
17.30 352.155884
17.32 351.824829
17.34 358.248596
17.36 356.96817
17.38 355.653839
17.40 358.495087
17.42 362.572815
17.44 363.194733
17.46 360.502167
17.48 358.074677
17.50 357.933258
17.52 358.813934
17.54 362.818298
17.56 374.992188
17.58 363.344055
17.60 353.154327
17.62 362.130463
17.64 363.423431
17.66 356.205322
17.68 362.471985
17.70 369.985016
17.72 362.390808
17.74 359.500854
17.76 365.015564
17.78 357.134796
17.80 363.350494
17.82 366.241943
17.84 375.610413
17.86 374.421967
17.88 377.331421
17.90 375.495789
17.92 371.301025
17.94 376.372253
17.96 378.04361
17.98 378.670166
18.00 378.771057
18.02 375.529663
18.04 373.480713
18.06 378.089142
18.08 381.500397
18.10 384.136932
18.12 387.394897
18.14 384.284729
18.16 375.388092
18.18 378.67218
18.20 379.287476
18.22 381.117676
18.24 384.715332
18.26 380.207886
18.28 380.464905
18.30 385.430023
18.32 389.286224
18.34 403.271729
18.36 398.627289
18.38 399.878571
18.40 393.771515
18.42 386.370789
18.44 381.809082
18.46 389.511444
18.48 393.785156
18.50 395.877716
18.52 400.068878
18.54 398.917664
18.56 403.135956
18.58 407.801025
18.60 405.055939
18.62 399.805389
18.64 391.439636
18.66 389.693359
18.68 399.353119
18.70 407.38739
18.72 407.62146
18.74 400.949768
18.76 397.999176
18.78 409.354675
18.80 409.402222
18.82 413.676239
18.84 411.019318
18.86 418.276489
18.88 418.628937
18.90 416.887726
18.92 408.57547
18.94 410.111298
18.96 413.83667
18.98 413.66507
19.00 408.124207
19.02 410.458923
19.04 417.815491
19.06 415.453705
19.08 419.34491
19.10 426.867615
19.12 429.03598
19.14 422.697113
19.16 421.095276
19.18 424.84314
19.20 427.215515
19.22 420.96286
19.24 425.716644
19.26 428.775574
19.28 424.412384
19.30 427.430969
19.32 428.725525
19.34 428.913513
19.36 428.67569
19.38 432.879517
19.40 440.020233
19.42 438.390564
19.44 443.570831
19.46 443.918854
19.48 444.097137
19.50 442.912933
19.52 442.709076
19.54 455.204041
19.56 446.154816
19.58 448.304779
19.60 445.351563
19.62 443.657623
19.64 450.35083
19.66 450.365356
19.68 443.671783
19.70 443.00882
19.72 447.995209
19.74 443.251556
19.76 455.462463
19.78 454.552063
19.80 456.057159
19.82 457.788666
19.84 449.391632
19.86 453.152985
19.88 461.46814
19.90 460.023102
19.92 464.061707
19.94 458.302277
19.96 455.745239
19.98 455.615936
20.00 456.80722
20.02 452.334991
20.04 460.448212
20.06 465.714874
20.08 466.151703
20.10 469.157257
20.12 471.663239
20.14 469.766083
20.16 474.223511
20.18 479.418304
20.20 480.569458
20.22 476.82547
20.24 484.062134
20.26 492.722107
20.28 479.194885
20.30 467.223907
20.32 478.577545
20.34 488.99585
20.36 482.876343
20.38 479.933777
20.40 478.258545
20.42 478.190399
20.44 481.090332
20.46 479.297913
20.48 490.314331
20.50 501.375946
20.52 487.564453
20.54 491.013153
20.56 490.544617
20.58 496.238312
20.60 500.222443
20.62 494.168945
20.64 501.686768
20.66 513.610657
20.68 509.59491
20.70 503.952087
20.72 492.10202
20.74 493.229797
20.76 494.822144
20.78 504.799164
20.80 508.163055
20.82 506.321381
20.84 507.590393
20.86 514.240234
20.88 519.142456
20.90 522.381592
20.92 519.033936
20.94 518.351868
20.96 521.849426
20.98 522.115479
21.00 524.679443
21.02 539.148254
21.04 534.039917
21.06 535.949951
21.08 533.509155
21.10 539.585938
21.12 547.086243
21.14 546.360962
21.16 549.056641
21.18 556.361816
21.20 560.452393
21.22 551.606873
21.24 562.713562
21.26 573.946045
21.28 574.358948
21.30 573.249207
21.32 576.184448
21.34 575.687012
21.36 579.838196
21.38 586.21167
21.40 581.75708
21.42 594.620239
21.44 598.751831
21.46 601.75531
21.48 591.171204
21.50 596.852173
21.52 602.94751
21.54 591.074219
21.56 594.544434
21.58 603.129578
21.60 592.136902
21.62 586.887268
21.64 583.387695
21.66 582.506653
21.68 584.116638
21.70 582.356079
21.72 584.351746
21.74 580.18866
21.76 583.351624
21.78 579.580383
21.80 579.403015
21.82 580.249512
21.84 574.06189
21.86 586.290039
21.88 578.497742
21.90 572.177368
21.92 568.726746
21.94 573.217712
21.96 581.305908
21.98 583.015625
22.00 575.866577
22.02 578.259338
22.04 583.182983
22.06 570.997986
22.08 566.303528
22.10 560.914856
22.12 576.391357
22.14 580.664551
22.16 579.05304
22.18 583.938171
22.20 586.700012
22.22 585.20282
22.24 579.224731
22.26 577.890869
22.28 577.47168
22.30 573.503784
22.32 579.071716
22.34 580.131531
22.36 581.713013
22.38 577.251099
22.40 589.050537
22.42 588.97821
22.44 581.825867
22.46 582.025452
22.48 579.322876
22.50 576.958679
22.52 582.324097
22.54 581.625488
22.56 585.419312
22.58 580.765686
22.60 574.55542
22.62 568.589905
22.64 578.151489
22.66 583.363831
22.68 586.018494
22.70 584.218201
22.72 588.050415
22.74 591.093872
22.76 586.434814
22.78 590.134338
22.80 598.649902
22.82 596.844116
22.84 592.163025
22.86 595.256714
22.88 593.39679
22.90 593.98175
22.92 596.097595
22.94 596.346313
22.96 593.249451
22.98 598.684753
23.00 601.394104
23.02 596.748718
23.04 594.365417
23.06 593.921448
23.08 600.237244
23.10 601.331482
23.12 604.161133
23.14 595.90863
23.16 593.285706
23.18 594.358093
23.20 595.580688
23.22 595.581848
23.24 594.172546
23.26 588.333252
23.28 598.394592
23.30 598.458557
23.32 603.175781
23.34 606.164246
23.36 599.295166
23.38 596.193726
23.40 598.375488
23.42 595.750793
23.44 597.342285
23.46 606.516602
23.48 595.212402
23.50 599.254211
23.52 600.963562
23.54 601.161499
23.56 599.065918
23.58 605.466187
23.60 603.102539
23.62 605.35968
23.64 602.113586
23.66 601.034668
23.68 603.483643
23.70 608.121643
23.72 609.539001
23.74 611.140381
23.76 608.443848
23.78 617.450562
23.80 610.263733
23.82 600.600098
23.84 601.121521
23.86 600.95813
23.88 602.281372
23.90 609.331177
23.92 603.01178
23.94 607.005066
23.96 606.212891
23.98 607.250549
24.00 609.249634
24.02 609.073669
24.04 616.768127
24.06 612.030151
24.08 607.969971
24.10 607.146973
24.12 605.278625
24.14 615.937439
24.16 604.899719
24.18 607.370972
24.20 614.942078
24.22 619.316223
24.24 621.053284
24.26 624.301941
24.28 624.920837
24.30 624.468872
24.32 620.37384
24.34 615.981201
24.36 610.957581
24.38 623.51239
24.40 623.246582
24.42 630.372009
24.44 630.369019
24.46 620.808899
24.48 621.810486
24.50 625.839661
24.52 613.4505
24.54 614.050781
24.56 620.476318
24.58 626.220337
24.60 622.198242
24.62 616.381897
24.64 619.146057
24.66 625.181335
24.68 622.85199
24.70 616.431152
24.72 614.127197
24.74 611.901001
24.76 616.695251
24.78 627.502808
24.80 628.071045
24.82 628.315613
24.84 626.383667
24.86 617.85022
24.88 611.222717
24.90 613.297607
24.92 619.884888
24.94 615.491028
24.96 608.229431
24.98 604.594238
25.00 611.328186
25.02 617.116455
25.04 614.151733
25.06 622.498352
25.08 622.14563
25.10 623.349426
25.12 623.166992
25.14 622.718811
25.16 618.41925
25.18 615.926086
25.20 616.141479
25.22 618.879333
25.24 621.468384
25.26 623.71582
25.28 617.808289
25.30 614.563843
25.32 611.67804
25.34 606.1474
25.36 615.169006
25.38 616.406738
25.40 612.687927
25.42 611.502258
25.44 615.513977
25.46 617.899109
25.48 616.596436
25.50 615.40686
25.52 614.57959
25.54 624.145203
25.56 614.829102
25.58 613.969482
25.60 612.391479
25.62 616.473389
25.64 618.103638
25.66 615.570129
25.68 617.59613
25.70 617.129761
25.72 607.903076
25.74 613.648376
25.76 617.881165
25.78 614.880493
25.80 615.333984
25.82 614.540344
25.84 607.927979
25.86 610.474854
25.88 614.598938
25.90 609.035645
25.92 613.488098
25.94 610.729248
25.96 615.856506
25.98 619.115356
26.00 605.454163
26.02 609.731384
26.04 611.515991
26.06 610.94928
26.08 622.469482
26.10 620.800781
26.12 616.260254
26.14 615.378784
26.16 616.671326
26.18 610.473022
26.20 615.307495
26.22 622.681763
26.24 614.793945
26.26 617.060242
26.28 611.024841
26.30 609.638367
26.32 606.847534
26.34 603.875977
26.36 610.609497
26.38 612.397766
26.40 605.087952
26.42 617.129333
26.44 618.145874
26.46 623.530457
26.48 609.606262
26.50 613.444031
26.52 616.016846
26.54 597.614563
26.56 601.124512
26.58 611.110107
26.60 606.995789
26.62 602.916443
26.64 605.311157
26.66 604.123291
26.68 601.11792
26.70 614.512939
26.72 615.320923
26.74 619.948669
26.76 614.437927
26.78 608.8255
26.80 602.886414
26.82 604.342651
26.84 604.772705
26.86 601.047607
26.88 606.816589
26.90 608.105591
26.92 609.110168
26.94 604.702209
26.96 601.178467
26.98 602.290955
27.00 608.131165
27.02 612.638428
27.04 610.194275
27.06 604.0849
27.08 599.232605
27.10 595.782227
27.12 606.808105
27.14 614.274292
27.16 603.491394
27.18 596.458252
27.20 607.9245
27.22 613.675537
27.24 600.938171
27.26 599.344727
27.28 603.813416
27.30 604.185181
27.32 604.512268
27.34 604.154724
27.36 595.241821
27.38 597.513855
27.40 609.49353
27.42 606.582825
27.44 608.303406
27.46 607.547546
27.48 602.214172
27.50 605.161743
27.52 601.814514
27.54 595.716064
27.56 600.473328
27.58 604.663513
27.60 599.470642
27.62 597.80658
27.64 597.730774
27.66 595.476318
27.68 594.610413
27.70 595.759277
27.72 598.915527
27.74 605.037231
27.76 598.153687
27.78 593.821716
27.80 595.940002
27.82 599.967468
27.84 600.047729
27.86 601.922791
27.88 604.129639
27.90 604.664917
27.92 602.909302
27.94 601.539551
27.96 598.746277
27.98 596.005554
28.00 602.551331
28.02 597.469971
28.04 605.933655
28.06 603.335754
28.08 593.294922
28.10 592.443726
28.12 592.941345
28.14 589.762756
28.16 590.4375
28.18 598.182251
28.20 595.306213
28.22 592.81604
28.24 597.590454
28.26 595.401611
28.28 584.595337
28.30 585.993103
28.32 589.172974
28.34 590.921997
28.36 589.951904
28.38 587.655701
28.40 587.399963
28.42 589.949768
28.44 583.314514
28.46 591.234009
28.48 598.890442
28.50 596.285217
28.52 593.271423
28.54 590.608521
28.56 588.582886
28.58 590.376709
28.60 592.767212
28.62 592.268616
28.64 587.653992
28.66 586.792969
28.68 587.118225
28.70 591.675537
28.72 588.279053
28.74 584.842712
28.76 584.234558
28.78 582.84613
28.80 583.378723
28.82 576.894165
28.84 586.137451
28.86 584.337769
28.88 578.535767
28.90 587.877014
28.92 584.465576
28.94 585.355713
28.96 588.014343
28.98 579.972839
29.00 577.957581
29.02 582.330383
29.04 587.052307
29.06 582.106445
29.08 583.291382
29.10 582.587402
29.12 578.828125
29.14 572.367676
29.16 576.243958
29.18 574.947327
29.20 579.764771
29.22 587.952209
29.24 576.458069
29.26 579.010742
29.28 581.389221
29.30 578.911865
29.32 574.896973
29.34 576.34259
29.36 578.305115
29.38 578.132141
29.40 582.610962
29.42 585.91925
29.44 583.541626
29.46 579.803223
29.48 579.389404
29.50 584.480164
29.52 585.173462
29.54 579.273987
29.56 575.560974
29.58 570.580505
29.60 570.22583
29.62 575.103699
29.64 580.711914
29.66 582.266846
29.68 589.087952
29.70 577.39386
29.72 570.632385
29.74 569.373535
29.76 578.0578
29.78 585.955994
29.80 579.394226
29.82 583.935303
29.84 582.798279
29.86 585.168945
29.88 583.097778
29.90 583.519958
29.92 579.974121
29.94 578.402893
29.96 579.573669
29.98 578.045349
30.00 576.475647
30.02 576.999695
30.04 570.950867
30.06 575.303711
30.08 586.886292
30.10 582.034119
30.12 582.862427
30.14 586.749817
30.16 590.668579
30.18 588.810425
30.20 589.449707
30.22 596.013123
30.24 597.482422
30.26 601.238647
30.28 608.922424
30.30 620.017944
30.32 616.679443
30.34 614.802063
30.36 626.121582
30.38 634.346985
30.40 640.80481
30.42 652.88031
30.44 663.83313
30.46 681.339233
30.48 686.204956
30.50 697.044617
30.52 708.663391
30.54 726.389954
30.56 743.541687
30.58 750.738525
30.60 759.798889
30.62 765.234924
30.64 764.903442
30.66 753.175659
30.68 739.276917
30.70 734.357788
30.72 715.328918
30.74 693.161377
30.76 685.739441
30.78 673.100586
30.80 653.724121
30.82 640.144165
30.84 612.839539
30.86 600.501221
30.88 601.837646
30.90 587.229431
30.92 581.288452
30.94 589.712708
30.96 586.145142
30.98 576.285767
31.00 574.595398
31.02 568.366333
31.04 572.600769
31.06 565.665771
31.08 554.125427
31.10 556.224854
31.12 556.258057
31.14 548.135681
31.16 551.200562
31.18 548.731567
31.20 547.74762
31.22 547.685608
31.24 547.999023
31.26 550.724854
31.28 549.337219
31.30 554.79834
31.32 547.058594
31.34 552.370483
31.36 551.169556
31.38 543.658447
31.40 542.276855
31.42 535.393494
31.44 533.791077
31.46 537.198792
31.48 538.89624
31.50 539.926208
31.52 540.547485
31.54 531.801453
31.56 535.032349
31.58 540.263306
31.60 534.335022
31.62 531.214844
31.64 526.204285
31.66 527.357422
31.68 527.602905
31.70 525.197388
31.72 521.276672
31.74 529.456909
31.76 532.453552
31.78 523.8172
31.80 523.164429
31.82 528.170898
31.84 518.979004
31.86 515.606384
31.88 520.401245
31.90 525.755249
31.92 520.407349
31.94 514.059448
31.96 518.035217
31.98 514.729858
32.00 512.786133
32.02 515.195374
32.04 511.991425
32.06 513.203064
32.08 516.448303
32.10 511.366425
32.12 512.662231
32.14 513.684082
32.16 512.686035
32.18 504.99942
32.20 507.924622
32.22 511.364227
32.24 511.906006
32.26 517.318054
32.28 516.000061
32.30 503.662231
32.32 499.080811
32.34 502.619263
32.36 506.740021
32.38 500.916138
32.40 497.661499
32.42 504.361206
32.44 504.982666
32.46 502.519409
32.48 494.617249
32.50 508.056976
32.52 506.202179
32.54 504.654785
32.56 499.015442
32.58 495.755127
32.60 496.047943
32.62 498.311157
32.64 492.25
32.66 489.949799
32.68 497.723541
32.70 498.055267
32.72 493.383881
32.74 498.298889
32.76 507.20517
32.78 501.150665
32.80 495.662567
32.82 484.059509
32.84 485.583069
32.86 493.994476
32.88 492.538879
32.90 489.958679
32.92 486.796967
32.94 484.935516
32.96 492.733459
32.98 487.46991
33.00 489.167816
33.02 489.4841
33.04 484.461029
33.06 481.461884
33.08 486.044678
33.10 484.289459
33.12 480.156342
33.14 479.18808
33.16 479.68811
33.18 481.673248
33.20 478.505981
33.22 485.323853
33.24 480.487701
33.26 484.070801
33.28 488.477539
33.30 483.081299
33.32 482.768402
33.34 482.189026
33.36 482.61087
33.38 475.990875
33.40 480.17746
33.42 486.171478
33.44 488.792175
33.46 482.5112
33.48 482.210236
33.50 490.222443
33.52 480.636414
33.54 486.34317
33.56 485.487335
33.58 483.542755
33.60 481.743896
33.62 485.340912
33.64 482.356598
33.66 481.271851
33.68 483.707581
33.70 486.945038
33.72 484.092682
33.74 487.082397
33.76 485.814209
33.78 487.542694
33.80 492.211731
33.82 489.29364
33.84 485.491333
33.86 482.062805
33.88 487.314392
33.90 496.321472
33.92 495.483765
33.94 498.462524
33.96 493.709167
33.98 497.570953
34.00 511.043518
34.02 510.398315
34.04 510.272156
34.06 508.540985
34.08 519.409485
34.10 520.080994
34.12 519.792236
34.14 519.006653
34.16 523.523682
34.18 529.482117
34.20 534.490845
34.22 540.761597
34.24 542.21344
34.26 542.144226
34.28 533.464294
34.30 546.123413
34.32 544.508789
34.34 538.005493
34.36 547.05719
34.38 545.09259
34.40 542.406555
34.42 540.48999
34.44 531.350647
34.46 531.050476
34.48 527.046936
34.50 520.167297
34.52 521.466187
34.54 516.885864
34.56 515.448669
34.58 511.892548
34.60 497.386749
34.62 493.729126
34.64 488.42511
34.66 481.707336
34.68 486.542206
34.70 482.162476
34.72 481.247375
34.74 480.613983
34.76 475.630737
34.78 476.238831
34.80 470.228638
34.82 469.34024
34.84 464.289764
34.86 460.533813
34.88 455.217316
34.90 456.606049
34.92 462.901245
34.94 453.981689
34.96 447.163605
34.98 449.598114
35.00 444.831879
35.02 446.949493
35.04 448.98114
35.06 445.670959
35.08 442.579376
35.10 435.808502
35.12 434.824768
35.14 436.176849
35.16 433.042297
35.18 424.768188
35.20 436.701263
35.22 437.649017
35.24 430.830414
35.26 427.262238
35.28 429.039337
35.30 428.4133
35.32 430.224762
35.34 427.112427
35.36 420.923187
35.38 416.978302
35.40 417.086487
35.42 420.357086
35.44 422.403778
35.46 418.689606
35.48 420.339569
35.50 423.652985
35.52 418.052887
35.54 409.82193
35.56 414.464203
35.58 417.25354
35.60 406.549591
35.62 407.298431
35.64 413.505585
35.66 416.231995
35.68 419.25827
35.70 411.59906
35.72 404.695984
35.74 409.994995
35.76 411.201324
35.78 404.316437
35.80 397.028229
35.82 398.162384
35.84 400.680115
35.86 402.032928
35.88 396.267517
35.90 394.210693
35.92 401.137878
35.94 408.314148
35.96 396.972717
35.98 393.629395
36.00 398.357819
36.02 394.570801
36.04 395.985718
36.06 397.059265
36.08 391.034424
36.10 393.20929
36.12 396.337463
36.14 397.956177
36.16 390.509674
36.18 385.1203
36.20 388.419067
36.22 393.044891
36.24 391.550049
36.26 393.096588
36.28 389.381622
36.30 387.4888
36.32 395.166046
36.34 389.700684
36.36 388.080597
36.38 390.136566
36.40 388.752655
36.42 384.167786
36.44 391.086731
36.46 390.161957
36.48 386.253113
36.50 382.684662
36.52 384.280243
36.54 385.548035
36.56 384.523254
36.58 380.922852
36.60 377.047546
36.62 373.420715
36.64 379.112671
36.66 381.276489
36.68 381.715485
36.70 381.892517
36.72 375.516968
36.74 379.804871
36.76 383.328949
36.78 378.629272
36.80 379.50412
36.82 379.117126
36.84 378.486664
36.86 375.681671
36.88 375.5672
36.90 372.88913
36.92 374.995056
36.94 378.066254
36.96 374.36261
36.98 369.912964
37.00 371.603088
37.02 371.515289
37.04 372.6091
37.06 375.538116
37.08 379.054382
37.10 372.529114
37.12 368.845337
37.14 376.345551
37.16 368.440613
37.18 365.625671
37.20 367.889099
37.22 363.238556
37.24 358.365753
37.26 362.3125
37.28 366.221313
37.30 362.468323
37.32 362.574463
37.34 365.020599
37.36 363.635223
37.38 362.372253
37.40 368.137054
37.42 364.50119
37.44 369.568237
37.46 373.152252
37.48 367.617096
37.50 368.813904
37.52 370.356018
37.54 370.817932
37.56 375.70575
37.58 378.038788
37.60 375.465851
37.62 372.121704
37.64 374.912781
37.66 370.571198
37.68 369.763977
37.70 370.593079
37.72 374.931793
37.74 377.955597
37.76 377.616699
37.78 371.824707
37.80 375.482452
37.82 369.147675
37.84 364.774811
37.86 361.028931
37.88 361.953186
37.90 361.167267
37.92 367.807526
37.94 362.562439
37.96 356.269379
37.98 354.181458
38.00 356.626617
38.02 357.893585
38.04 354.991394
38.06 354.55777
38.08 347.440979
38.10 347.965637
38.12 348.029297
38.14 344.381653
38.16 343.875397
38.18 340.095154
38.20 340.618927
38.22 346.415314
38.24 347.576263
38.26 343.601379
38.28 337.792419
38.30 336.566223
38.32 338.144897
38.34 345.017761
38.36 340.674286
38.38 335.185669
38.40 332.783325
38.42 332.608551
38.44 339.476349
38.46 336.411469
38.48 336.06543
38.50 330.802704
38.52 331.97226
38.54 332.748383
38.56 334.961212
38.58 334.84082
38.60 335.449524
38.62 331.677246
38.64 334.151459
38.66 331.547607
38.68 328.350616
38.70 329.541687
38.72 331.395264
38.74 330.414948
38.76 331.884583
38.78 329.381927
38.80 319.517517
38.82 327.406586
38.84 325.7005
38.86 331.37204
38.88 330.037231
38.90 331.539307
38.92 327.982239
38.94 326.563171
38.96 329.090332
38.98 325.850616
39.00 321.437561
39.02 321.226868
39.04 317.707153
39.06 314.916382
39.08 320.25116
39.10 318.207581
39.12 326.403259
39.14 323.887085
39.16 322.634766
39.18 325.319397
39.20 318.27179
39.22 316.30072
39.24 318.257111
39.26 328.112976
39.28 324.560303
39.30 323.776367
39.32 320.167328
39.34 316.66748
39.36 314.959442
39.38 314.81369
39.40 319.775146
39.42 319.770905
39.44 324.830536
39.46 320.0466
39.48 316.114655
39.50 321.046204
39.52 316.673401
39.54 317.002075
39.56 315.873444
39.58 314.940491
39.60 310.174133
39.62 310.494843
39.64 318.451965
39.66 318.156036
39.68 312.579254
39.70 313.317078
39.72 315.711517
39.74 314.466644
39.76 314.446198
39.78 315.711731
39.80 312.517029
39.82 312.726227
39.84 309.788818
39.86 308.165222
39.88 307.726624
39.90 308.824127
39.92 308.167786
39.94 311.384064
39.96 313.030579
39.98 313.398926
40.00 310.143372
