!@!!GADDS PLOTSO FILE: Chi integration type
!@!!Title/SampleName: ML_MAPbX3
!@!!User: NREL
!@!!Site: NREL SERF C211; SN 2510
!@!!Frame: 081022_MLProject_000_016.gfrm
!@!!Wavelengths    1.54184   1.54056   1.54439
!@!!Frame angles: 2Theta: 28.000 Omega: 5.000 Phi: 0.000 Chi: 90.000
!@!!Integration range: 2Theta: 10.000 to 40.000  Gamma: -135.000 to -110.000
!@!!Integration method: bin normalized
!@!N
!@!SS
!@!M
!@!L 0.0 0.0 0.0 0.0
!@!XDegrees
!@!YCounts
10.00 151.074707
10.02 159.833771
10.04 164.646744
10.06 141.686554
10.08 144.280594
10.10 164.477432
10.12 155.453415
10.14 157.027344
10.16 149.265488
10.18 158.973648
10.20 152.114883
10.22 151.528091
10.24 145.617783
10.26 149.231339
10.28 155.340332
10.30 159.276382
10.32 146.3358
10.34 160.560791
10.36 163.382645
10.38 161.89151
10.40 172.089951
10.42 171.414612
10.44 176.162384
10.46 181.6073
10.48 154.276718
10.50 172.287018
10.52 172.738739
10.54 171.424744
10.56 170.889664
10.58 170.376266
10.60 174.103714
10.62 177.206223
10.64 181.280701
10.66 153.893829
10.68 160.439606
10.70 161.562805
10.72 168.091644
10.74 173.622055
10.76 176.903137
10.78 183.580154
10.80 192.697891
10.82 185.864716
10.84 179.608734
10.86 185.811584
10.88 189.217041
10.90 187.453156
10.92 197.509537
10.94 195.521591
10.96 170.020111
10.98 180.679642
11.00 196.932663
11.02 198.792465
11.04 190.026703
11.06 198.742981
11.08 182.652145
11.10 190.575592
11.12 177.895844
11.14 190.086761
11.16 194.668411
11.18 195.949982
11.20 186.061462
11.22 183.567612
11.24 202.076263
11.26 205.894516
11.28 192.429916
11.30 178.939468
11.32 186.747391
11.34 184.330627
11.36 205.739487
11.38 201.25563
11.40 197.192444
11.42 208.151855
11.44 208.458649
11.46 202.705353
11.48 203.24881
11.50 212.759506
11.52 193.245224
11.54 187.639664
11.56 206.069016
11.58 207.042969
11.60 210.892365
11.62 201.4888
11.64 206.756149
11.66 200.499527
11.68 194.879837
11.70 196.16217
11.72 201.085098
11.74 198.169098
11.76 209.038788
11.78 204.404999
11.80 217.969803
11.82 228.051346
11.84 214.131058
11.86 201.610443
11.88 202.252106
11.90 215.691391
11.92 224.721649
11.94 222.048508
11.96 233.311157
11.98 234.400772
12.00 233.785919
12.02 226.797897
12.04 221.447693
12.06 238.638992
12.08 234.39241
12.10 219.328476
12.12 230.343033
12.14 238.91275
12.16 215.091415
12.18 219.557663
12.20 219.521698
12.22 226.440384
12.24 237.066055
12.26 245.346207
12.28 249.131073
12.30 229.990723
12.32 229.673828
12.34 230.105225
12.36 235.290207
12.38 217.145737
12.40 215.716507
12.42 235.87326
12.44 242.145279
12.46 247.415588
12.48 239.934418
12.50 245.821854
12.52 251.463715
12.54 236.054337
12.56 225.048737
12.58 232.663132
12.60 253.772614
12.62 251.756042
12.64 248.218903
12.66 250.671432
12.68 235.444672
12.70 231.896072
12.72 227.920441
12.74 238.585403
12.76 247.391571
12.78 260.892059
12.80 258.157623
12.82 234.544571
12.84 237.776215
12.86 238.610901
12.88 237.002533
12.90 254.517517
12.92 253.257843
12.94 242.76152
12.96 233.598495
12.98 237.335632
13.00 251.565521
13.02 250.609863
13.04 251.28862
13.06 244.961273
13.08 238.124924
13.10 245.614609
13.12 252.630493
13.14 250.683594
13.16 246.939178
13.18 240.468735
13.20 240.020782
13.22 243.914108
13.24 252.937881
13.26 254.708344
13.28 239.412338
13.30 232.439224
13.32 246.944595
13.34 246.722626
13.36 255.82547
13.38 265.603455
13.40 263.552979
13.42 255.183777
13.44 245.762985
13.46 258.495117
13.48 278.102539
13.50 276.614105
13.52 269.81778
13.54 263.80423
13.56 267.836487
13.58 276.301727
13.60 279.362427
13.62 292.390472
13.64 278.987946
13.66 283.519775
13.68 281.528137
13.70 294.835724
13.72 291.491882
13.74 283.199829
13.76 287.379181
13.78 301.39093
13.80 302.109375
13.82 286.356323
13.84 291.523438
13.86 303.70343
13.88 305.999634
13.90 315.85083
13.92 319.267181
13.94 314.832794
13.96 324.534607
13.98 311.566406
14.00 338.259216
14.02 336.210236
14.04 313.849152
14.06 313.058563
14.08 320.491608
14.10 326.867432
14.12 325.150757
14.14 316.914368
14.16 326.15271
14.18 315.910004
14.20 313.156036
14.22 324.123199
14.24 307.640961
14.26 297.177307
14.28 282.377655
14.30 282.84259
14.32 303.564972
14.34 293.169312
14.36 298.496796
14.38 277.056244
14.40 278.072113
14.42 283.358307
14.44 267.266846
14.46 267.689911
14.48 257.082611
14.50 255.9543
14.52 280.188416
14.54 283.508179
14.56 279.681854
14.58 282.056396
14.60 274.445587
14.62 269.816895
14.64 289.671509
14.66 278.381012
14.68 278.127502
14.70 278.138184
14.72 273.024597
14.74 274.837341
14.76 271.581055
14.78 281.065552
14.80 288.080109
14.82 280.736847
14.84 275.165405
14.86 275.55957
14.88 261.184692
14.90 259.809052
14.92 270.830261
14.94 271.032776
14.96 281.789215
14.98 285.958954
15.00 282.993347
15.02 269.662994
15.04 267.921936
15.06 266.365692
15.08 264.08728
15.10 270.844482
15.12 284.916626
15.14 284.803955
15.16 287.023071
15.18 279.941437
15.20 283.422882
15.22 280.328094
15.24 288.90625
15.26 287.76828
15.28 286.441193
15.30 284.324615
15.32 288.741272
15.34 290.664276
15.36 298.27652
15.38 309.618591
15.40 303.595856
15.42 281.701599
15.44 279.458221
15.46 288.073669
15.48 272.552673
15.50 269.953735
15.52 285.836548
15.54 295.079498
15.56 288.512665
15.58 290.444977
15.60 289.17395
15.62 296.447754
15.64 289.311737
15.66 286.96817
15.68 282.713074
15.70 277.208374
15.72 282.066956
15.74 286.065063
15.76 291.89978
15.78 305.79184
15.80 288.654968
15.82 283.643707
15.84 288.805481
15.86 279.150787
15.88 271.985901
15.90 279.89386
15.92 275.345428
15.94 273.05249
15.96 267.855408
15.98 272.984528
16.00 290.637878
16.02 288.491608
16.04 296.453033
16.06 298.641327
16.08 283.696869
16.10 293.591644
16.12 296.561768
16.14 282.980408
16.16 288.012634
16.18 298.345032
16.20 304.282471
16.22 301.384094
16.24 295.992401
16.26 293.533569
16.28 287.198761
16.30 301.523712
16.32 310.528809
16.34 291.93399
16.36 285.270905
16.38 295.586639
16.40 298.369965
16.42 302.275208
16.44 299.019836
16.46 289.955292
16.48 295.954102
16.50 317.544586
16.52 314.388885
16.54 290.989624
16.56 280.529633
16.58 279.294952
16.60 292.430908
16.62 289.557343
16.64 293.274811
16.66 297.978516
16.68 317.404205
16.70 311.477844
16.72 308.53952
16.74 296.017487
16.76 279.516876
16.78 301.964264
16.80 302.61734
16.82 290.416321
16.84 297.830627
16.86 300.882721
16.88 301.478638
16.90 301.164429
16.92 299.760864
16.94 293.652008
16.96 307.335907
16.98 315.126678
17.00 330.774841
17.02 327.693512
17.04 318.376678
17.06 327.255035
17.08 312.927917
17.10 309.330078
17.12 299.24707
17.14 307.773315
17.16 317.247833
17.18 316.875488
17.20 302.09494
17.22 304.116058
17.24 298.408905
17.26 311.868408
17.28 314.268982
17.30 314.672791
17.32 331.021606
17.34 311.3284
17.36 323.521606
17.38 323.041962
17.40 316.565033
17.42 320.988434
17.44 312.258972
17.46 315.234833
17.48 316.790955
17.50 331.554474
17.52 333.173004
17.54 322.056274
17.56 321.179993
17.58 310.59729
17.60 307.977386
17.62 319.695496
17.64 329.832001
17.66 309.985535
17.68 313.906647
17.70 329.017059
17.72 342.457092
17.74 339.10318
17.76 331.357269
17.78 324.881653
17.80 328.277344
17.82 335.021942
17.84 328.641266
17.86 332.115845
17.88 339.355255
17.90 342.500763
17.92 325.006683
17.94 339.893921
17.96 334.289429
17.98 338.704041
18.00 339.466888
18.02 342.26767
18.04 323.71106
18.06 328.530365
18.08 330.073029
18.10 343.208252
18.12 349.273468
18.14 344.934265
18.16 354.179321
18.18 353.561859
18.20 350.03418
18.22 353.976074
18.24 351.911377
18.26 339.428162
18.28 335.968475
18.30 340.553894
18.32 364.985504
18.34 354.969971
18.36 338.812683
18.38 376.614716
18.40 378.1026
18.42 349.149048
18.44 358.239471
18.46 355.236816
18.48 356.783142
18.50 353.156616
18.52 344.419678
18.54 337.058929
18.56 333.50882
18.58 346.92746
18.60 357.626801
18.62 341.872314
18.64 362.561401
18.66 361.54715
18.68 358.853302
18.70 356.699615
18.72 363.393921
18.74 365.517883
18.76 367.439972
18.78 362.415558
18.80 342.774384
18.82 345.39856
18.84 363.48526
18.86 371.916168
18.88 362.00766
18.90 354.763702
18.92 365.636169
18.94 356.43808
18.96 361.186218
18.98 387.313324
19.00 387.419067
19.02 384.663147
19.04 375.796692
19.06 364.125641
19.08 382.174103
19.10 378.997711
19.12 370.788239
19.14 376.547211
19.16 375.831757
19.18 371.957489
19.20 380.203857
19.22 393.636658
19.24 377.012634
19.26 382.23877
19.28 376.64093
19.30 380.969482
19.32 385.024872
19.34 375.898315
19.36 376.852264
19.38 373.694397
19.40 384.113892
19.42 386.638428
19.44 384.058533
19.46 388.014313
19.48 392.628082
19.50 401.277771
19.52 394.931122
19.54 386.887939
19.56 391.247253
19.58 398.029724
19.60 414.040405
19.62 407.179077
19.64 422.957336
19.66 418.7453
19.68 399.061523
19.70 408.248474
19.72 412.445587
19.74 410.485779
19.76 406.734283
19.78 400.980835
19.80 410.107483
19.82 410.912415
19.84 418.431519
19.86 427.161774
19.88 429.67218
19.90 420.682648
19.92 418.399933
19.94 418.363129
19.96 423.514404
19.98 420.251923
20.00 412.261322
20.02 409.03833
20.04 405.069916
20.06 421.198547
20.08 418.456696
20.10 408.356659
20.12 400.430695
20.14 402.568481
20.16 398.4534
20.18 404.658997
20.20 420.197906
20.22 425.655334
20.24 410.958649
20.26 404.661133
20.28 409.299927
20.30 420.161957
20.32 419.320709
20.34 427.941803
20.36 428.425262
20.38 425.473511
20.40 421.024933
20.42 434.213196
20.44 419.860596
20.46 408.12323
20.48 416.818512
20.50 434.53244
20.52 447.820007
20.54 436.403198
20.56 422.74649
20.58 417.519196
20.60 425.122009
20.62 423.25061
20.64 432.423859
20.66 431.449615
20.68 435.502686
20.70 426.04248
20.72 428.030762
20.74 422.449585
20.76 430.779572
20.78 438.033051
20.80 432.583008
20.82 444.988922
20.84 440.626984
20.86 437.446533
20.88 456.555084
20.90 445.41861
20.92 438.174164
20.94 433.638275
20.96 433.45816
20.98 446.21109
21.00 461.25061
21.02 457.864319
21.04 440.09137
21.06 450.847137
21.08 454.892548
21.10 457.126373
21.12 453.994659
21.14 450.302826
21.16 445.692352
21.18 440.390137
21.20 450.961517
21.22 452.790436
21.24 447.470581
21.26 469.700378
21.28 471.3992
21.30 457.271057
21.32 463.002441
21.34 483.652802
21.36 471.085266
21.38 456.827942
21.40 455.358917
21.42 452.00882
21.44 449.955505
21.46 447.09668
21.48 459.130249
21.50 470.534149
21.52 467.592804
21.54 456.950775
21.56 474.328156
21.58 476.484772
21.60 471.750885
21.62 471.699615
21.64 470.839722
21.66 487.294159
21.68 483.212341
21.70 482.475891
21.72 487.415497
21.74 486.103149
21.76 486.100037
21.78 481.307526
21.80 494.586914
21.82 498.457428
21.84 484.800079
21.86 483.549805
21.88 507.336212
21.90 508.987854
21.92 483.709961
21.94 481.643097
21.96 489.095093
21.98 497.664337
22.00 477.988068
22.02 478.50293
22.04 491.519165
22.06 485.713745
22.08 482.445251
22.10 464.118988
22.12 456.273376
22.14 487.546082
22.16 504.264435
22.18 482.351074
22.20 476.877045
22.22 487.919708
22.24 491.318573
22.26 488.770966
22.28 497.499939
22.30 493.095428
22.32 512.521179
22.34 509.198212
22.36 500.409637
22.38 487.622223
22.40 479.424652
22.42 489.756256
22.44 481.802948
22.46 498.623993
22.48 509.165497
22.50 498.623901
22.52 489.56723
22.54 492.49884
22.56 509.220917
22.58 522.335754
22.60 527.972107
22.62 510.770935
22.64 500.967438
22.66 499.196899
22.68 496.524048
22.70 504.903534
22.72 509.138458
22.74 521.792847
22.76 520.242126
22.78 510.139465
22.80 504.319397
22.82 528.864319
22.84 513.26239
22.86 512.504761
22.88 530.011536
22.90 523.760193
22.92 512.134705
22.94 516.070801
22.96 513.936584
22.98 511.718262
23.00 518.563477
23.02 528.556458
23.04 533.444153
23.06 508.481628
23.08 501.179321
23.10 504.028381
23.12 511.200806
23.14 520.15802
23.16 517.412109
23.18 517.532349
23.20 515.468384
23.22 529.936401
23.24 529.845581
23.26 520.128357
23.28 516.271851
23.30 516.235474
23.32 526.487183
23.34 514.69165
23.36 514.057251
23.38 527.904785
23.40 534.069702
23.42 541.3396
23.44 532.672424
23.46 523.675537
23.48 518.088623
23.50 524.602905
23.52 533.723206
23.54 544.775452
23.56 548.774048
23.58 538.7948
23.60 533.273376
23.62 522.903015
23.64 528.442322
23.66 548.843567
23.68 548.706909
23.70 525.256287
23.72 533.193298
23.74 537.909241
23.76 518.519043
23.78 527.187195
23.80 540.852905
23.82 526.335449
23.84 518.645996
23.86 531.672607
23.88 534.48291
23.90 541.741638
23.92 551.8703
23.94 548.595703
23.96 522.65271
23.98 531.600342
24.00 541.344543
24.02 536.363647
24.04 532.236023
24.06 528.111389
24.08 529.591003
24.10 530.841248
24.12 529.83844
24.14 529.477356
24.16 540.417969
24.18 529.783081
24.20 525.256409
24.22 548.138428
24.24 551.650024
24.26 551.255615
24.28 539.362854
24.30 533.801819
24.32 538.612915
24.34 552.085815
24.36 546.702881
24.38 527.028381
24.40 524.409119
24.42 548.844177
24.44 557.483093
24.46 541.653198
24.48 531.262024
24.50 545.008789
24.52 548.394714
24.54 558.415771
24.56 541.983887
24.58 533.078369
24.60 533.551514
24.62 530.92157
24.64 529.255615
24.66 535.756714
24.68 561.632202
24.70 565.15625
24.72 545.624084
24.74 555.797424
24.76 547.426697
24.78 544.826233
24.80 565.548767
24.82 565.882507
24.84 559.705933
24.86 548.592346
24.88 538.098999
24.90 525.630249
24.92 534.3078
24.94 548.05603
24.96 545.336731
24.98 539.749939
25.00 531.201111
25.02 552.764038
25.04 538.898682
25.06 525.074097
25.08 540.606384
25.10 559.088013
25.12 556.831116
25.14 560.557739
25.16 556.214172
25.18 548.507263
25.20 540.501465
25.22 540.860229
25.24 543.75946
25.26 544.994324
25.28 549.982727
25.30 541.119629
25.32 534.427795
25.34 520.602478
25.36 544.912842
25.38 563.65564
25.40 554.679993
25.42 553.784851
25.44 546.675354
25.46 558.08606
25.48 542.721741
25.50 549.292053
25.52 550.118713
25.54 534.515015
25.56 531.916443
25.58 549.395935
25.60 550.613098
25.62 538.779968
25.64 555.285034
25.66 532.615234
25.68 547.119385
25.70 553.532776
25.72 542.280334
25.74 538.25293
25.76 548.201355
25.78 558.416992
25.80 554.407715
25.82 556.674805
25.84 546.554077
25.86 554.77356
25.88 547.769226
25.90 555.279053
25.92 554.335083
25.94 539.845642
25.96 538.609131
25.98 539.49054
26.00 559.375122
26.02 569.093079
26.04 565.311523
26.06 558.504333
26.08 548.473816
26.10 560.265076
26.12 559.997681
26.14 552.002747
26.16 548.323303
26.18 555.231812
26.20 539.736938
26.22 533.175964
26.24 552.661316
26.26 551.596313
26.28 535.791809
26.30 559.723877
26.32 549.825317
26.34 538.03064
26.36 519.828186
26.38 542.157227
26.40 539.521912
26.42 541.370117
26.44 539.847473
26.46 545.964355
26.48 548.746643
26.50 551.213989
26.52 551.667664
26.54 550.58429
26.56 538.388733
26.58 530.413696
26.60 537.602478
26.62 533.833801
26.64 541.931274
26.66 545.666565
26.68 541.988892
26.70 554.557312
26.72 551.897644
26.74 549.313232
26.76 559.564636
26.78 562.196106
26.80 561.876953
26.82 554.025208
26.84 551.175171
26.86 545.194397
26.88 537.396362
26.90 546.491211
26.92 546.724365
26.94 537.470276
26.96 537.123657
26.98 549.269409
27.00 549.527954
27.02 545.383118
27.04 536.049927
27.06 527.215637
27.08 555.950256
27.10 554.038391
27.12 551.781372
27.14 534.553467
27.16 543.984314
27.18 548.980896
27.20 561.562805
27.22 546.745605
27.24 544.111511
27.26 543.567383
27.28 540.41095
27.30 534.045898
27.32 530.321716
27.34 537.464539
27.36 539.489075
27.38 537.259033
27.40 549.643982
27.42 550.284424
27.44 542.856812
27.46 553.472168
27.48 547.507813
27.50 548.478882
27.52 550.874512
27.54 544.030579
27.56 541.773132
27.58 547.048462
27.60 542.145203
27.62 533.39801
27.64 544.722473
27.66 543.469604
27.68 536.561218
27.70 550.817688
27.72 551.024353
27.74 559.195313
27.76 546.208313
27.78 540.816162
27.80 538.672546
27.82 551.093445
27.84 572.525391
27.86 556.135376
27.88 542.37262
27.90 543.138123
27.92 563.244385
27.94 558.679932
27.96 565.668396
27.98 570.727783
28.00 563.057678
28.02 573.417725
28.04 576.645752
28.06 587.493774
28.08 577.124695
28.10 560.052246
28.12 562.81665
28.14 579.292664
28.16 575.850464
28.18 573.800293
28.20 596.96405
28.22 597.598145
28.24 595.091187
28.26 590.630066
28.28 589.799683
28.30 590.569702
28.32 603.739014
28.34 603.653076
28.36 599.173584
28.38 598.27478
28.40 607.174133
28.42 599.927002
28.44 581.911926
28.46 596.932312
28.48 605.620544
28.50 588.584656
28.52 586.266113
28.54 602.786804
28.56 604.638672
28.58 587.861206
28.60 591.484375
28.62 575.601685
28.64 573.401672
28.66 586.188843
28.68 560.135742
28.70 557.177612
28.72 574.999573
28.74 559.233398
28.76 556.588074
28.78 550.875793
28.80 560.749573
28.82 544.939392
28.84 549.334229
28.86 550.533081
28.88 548.400024
28.90 536.934875
28.92 539.838501
28.94 537.566101
28.96 531.40155
28.98 530.312561
29.00 518.356689
29.02 526.532776
29.04 522.512634
29.06 529.179749
29.08 541.752869
29.10 529.930054
29.12 508.688477
29.14 504.566956
29.16 520.935486
29.18 525.918823
29.20 518.824463
29.22 515.987549
29.24 523.927979
29.26 521.864502
29.28 518.855713
29.30 517.860046
29.32 513.300598
29.34 519.215515
29.36 530.6875
29.38 524.907959
29.40 518.597534
29.42 521.25116
29.44 524.380554
29.46 519.238831
29.48 523.109741
29.50 518.252197
29.52 526.319824
29.54 519.112
29.56 519.151367
29.58 521.69635
29.60 518.0672
29.62 513.923035
29.64 540.919434
29.66 517.378662
29.68 514.65271
29.70 524.044189
29.72 518.148987
29.74 496.418152
29.76 498.457825
29.78 504.27594
29.80 509.488861
29.82 511.68335
29.84 505.765869
29.86 512.975037
29.88 515.13147
29.90 515.066711
29.92 506.856354
29.94 504.113434
29.96 505.422455
29.98 512.484558
30.00 510.766968
30.02 509.093628
30.04 513.711975
30.06 500.042969
30.08 499.998688
30.10 504.651642
30.12 503.066772
30.14 512.470642
30.16 517.707397
30.18 507.490326
30.20 501.435822
30.22 495.11084
30.24 496.276459
30.26 486.056122
30.28 492.294189
30.30 496.486237
30.32 499.110077
30.34 504.068359
30.36 492.292419
30.38 496.146149
30.40 514.564026
30.42 501.805603
30.44 480.838013
30.46 491.113342
30.48 504.808014
30.50 504.45459
30.52 498.071899
30.54 496.723083
30.56 490.100769
30.58 478.733276
30.60 489.963074
30.62 493.084259
30.64 488.735291
30.66 490.320221
30.68 481.506866
30.70 482.246796
30.72 486.040009
30.74 493.699524
30.76 508.59729
30.78 498.646179
30.80 483.483063
30.82 494.526825
30.84 489.311066
30.86 475.959625
30.88 481.813202
30.90 489.697174
30.92 504.70343
30.94 495.789764
30.96 483.533875
30.98 497.978851
31.00 488.755035
31.02 473.547546
31.04 486.763977
31.06 478.957428
31.08 472.881531
31.10 480.167023
31.12 478.996826
31.14 492.457306
31.16 495.110107
31.18 481.519745
31.20 483.536743
31.22 479.379028
31.24 481.237274
31.26 483.106262
31.28 483.227386
31.30 491.82312
31.32 483.73877
31.34 489.248596
31.36 501.153534
31.38 502.107422
31.40 497.299591
31.42 504.46109
31.44 500.639191
31.46 487.160767
31.48 488.750397
31.50 496.629272
31.52 507.364929
31.54 501.649536
31.56 505.96579
31.58 510.877625
31.60 506.939056
31.62 508.900879
31.64 513.000061
31.66 510.625427
31.68 531.526428
31.70 528.299561
31.72 527.788635
31.74 535.316223
31.76 527.968018
31.78 515.101257
31.80 520.744263
31.82 522.433105
31.84 515.687561
31.86 520.196289
31.88 527.744141
31.90 526.748108
31.92 533.142883
31.94 523.122803
31.96 518.330017
31.98 527.758179
32.00 523.783936
32.02 516.692566
32.04 511.592926
32.06 509.562988
32.08 491.419861
32.10 496.356964
32.12 500.120972
32.14 497.189972
32.16 486.228729
32.18 489.031219
32.20 498.422241
32.22 490.730988
32.24 469.76236
32.26 478.244873
32.28 489.777161
32.30 492.093231
32.32 471.550537
32.34 445.218994
32.36 446.19989
32.38 455.044464
32.40 456.94812
32.42 444.730957
32.44 443.922607
32.46 438.843201
32.48 438.022339
32.50 437.271027
32.52 438.883881
32.54 447.502075
32.56 454.474823
32.58 451.383392
32.60 442.781616
32.62 443.810883
32.64 448.582977
32.66 437.781219
32.68 436.719727
32.70 430.818481
32.72 434.685486
32.74 440.228699
32.76 433.593506
32.78 441.070435
32.80 430.422363
32.82 428.449738
32.84 441.950653
32.86 449.061005
32.88 435.654419
32.90 435.484833
32.92 435.253815
32.94 430.725098
32.96 432.217834
32.98 431.289703
33.00 441.565704
33.02 432.624725
33.04 433.532257
33.06 437.643982
33.08 431.462921
33.10 427.362885
33.12 430.319092
33.14 433.844421
33.16 428.560425
33.18 423.469269
33.20 415.151794
33.22 419.147949
33.24 428.565399
33.26 425.338226
33.28 415.492218
33.30 414.420471
33.32 414.964752
33.34 416.735596
33.36 420.670105
33.38 417.655823
33.40 410.373749
33.42 415.064056
33.44 425.863281
33.46 419.616547
33.48 413.052032
33.50 415.654419
33.52 409.080231
33.54 407.757294
33.56 425.403839
33.58 429.895569
33.60 423.742218
33.62 427.924286
33.64 415.852478
33.66 407.385895
33.68 402.169434
33.70 406.173828
33.72 414.39566
33.74 412.930756
33.76 417.6633
33.78 428.11264
33.80 415.586365
33.82 417.12439
33.84 422.712219
33.86 416.874908
33.88 414.575195
33.90 411.340912
33.92 405.653107
33.94 412.829102
33.96 400.996979
33.98 398.384766
34.00 402.088348
34.02 399.506195
34.04 403.540344
34.06 397.709503
34.08 419.107513
34.10 424.593933
34.12 402.619324
34.14 411.168335
34.16 428.23288
34.18 418.064087
34.20 416.721283
34.22 401.746704
34.24 384.989929
34.26 390.783386
34.28 386.151093
34.30 409.836792
34.32 410.251465
34.34 404.942932
34.36 412.857422
34.38 409.952515
34.40 407.105499
34.42 408.050018
34.44 403.950531
34.46 407.638702
34.48 413.691193
34.50 416.784302
34.52 418.074707
34.54 414.711578
34.56 403.898621
34.58 401.849792
34.60 399.45813
34.62 411.739075
34.64 418.311554
34.66 422.545471
34.68 412.910065
34.70 416.829254
34.72 411.813446
34.74 423.722137
34.76 409.792938
34.78 406.343994
34.80 412.971954
34.82 414.372772
34.84 414.855469
34.86 400.767059
34.88 393.872101
34.90 408.429535
34.92 417.698151
34.94 395.788605
34.96 402.174896
34.98 405.103546
35.00 408.508453
35.02 416.997711
35.04 404.465485
35.06 393.855103
35.08 396.563812
35.10 401.212952
35.12 403.298737
35.14 407.058899
35.16 407.765747
35.18 398.88327
35.20 402.329376
35.22 402.139587
35.24 385.311676
35.26 383.111633
35.28 388.969177
35.30 383.323608
35.32 399.026703
35.34 395.223816
35.36 378.884644
35.38 379.26709
35.40 397.007935
35.42 393.350769
35.44 380.716003
35.46 374.290314
35.48 375.454651
35.50 384.207886
35.52 384.885284
35.54 381.621368
35.56 376.708008
35.58 368.160645
35.60 382.117371
35.62 373.540405
35.64 369.13559
35.66 370.504425
35.68 369.387543
35.70 368.951019
35.72 357.984497
35.74 366.315979
35.76 366.168091
35.78 378.452972
35.80 386.428925
35.82 379.230804
35.84 371.662354
35.86 364.524292
35.88 358.498108
35.90 366.566711
35.92 357.578552
35.94 359.445129
35.96 370.184845
35.98 370.205109
36.00 346.970947
36.02 353.202515
36.04 361.959778
36.06 356.765961
36.08 360.460358
36.10 361.091827
36.12 363.668304
36.14 362.425659
36.16 349.992188
36.18 357.943573
36.20 363.015106
36.22 351.674286
36.24 336.988373
36.26 337.998749
36.28 338.932922
36.30 347.106964
36.32 345.10376
36.34 358.134247
36.36 362.039978
36.38 345.260132
36.40 330.426788
36.42 340.857574
36.44 348.076355
36.46 348.089752
36.48 347.389465
36.50 344.038239
36.52 353.544312
36.54 345.856415
36.56 342.498932
36.58 338.235291
36.60 335.746368
36.62 333.914337
36.64 349.771545
36.66 336.996826
36.68 334.464294
36.70 337.551086
36.72 346.653473
36.74 339.808044
36.76 329.447418
36.78 339.90329
36.80 335.961334
36.82 329.176056
36.84 337.067474
36.86 338.675812
36.88 339.418488
36.90 328.107727
36.92 324.04245
36.94 331.363495
36.96 325.164398
36.98 328.2612
37.00 328.097015
37.02 335.391754
37.04 343.041779
37.06 328.429047
37.08 324.152924
37.10 333.082336
37.12 339.986877
37.14 331.964661
37.16 318.972687
37.18 318.32135
37.20 314.55188
37.22 319.894043
37.24 318.13739
37.26 328.258331
37.28 330.486267
37.30 325.963348
37.32 327.291443
37.34 330.39328
37.36 337.822052
37.38 335.572662
37.40 341.277252
37.42 333.337738
37.44 329.784973
37.46 317.170868
37.48 322.223267
37.50 321.261414
37.52 318.802124
37.54 315.905701
37.56 319.674927
37.58 316.181335
37.60 309.689911
37.62 317.356537
37.64 317.033478
37.66 320.158752
37.68 316.778931
37.70 311.806244
37.72 313.22699
37.74 310.622864
37.76 314.312805
37.78 322.12262
37.80 337.095337
37.82 318.062988
37.84 311.517731
37.86 325.737061
37.88 322.156189
37.90 309.423615
37.92 305.493195
37.94 308.758331
37.96 312.479767
37.98 318.652496
38.00 321.056122
38.02 316.313324
38.04 315.691132
38.06 308.401001
38.08 304.982849
38.10 318.21167
38.12 326.655914
38.14 318.630341
38.16 311.993378
38.18 317.33493
38.20 321.724762
38.22 306.500671
38.24 306.224091
38.26 316.205353
38.28 319.294769
38.30 316.210693
38.32 312.310242
38.34 308.722046
38.36 312.762909
38.38 313.335968
38.40 306.984802
38.42 314.512115
38.44 299.062286
38.46 311.603729
38.48 305.744934
38.50 304.557739
38.52 310.147614
38.54 307.404205
38.56 304.776184
38.58 324.127411
38.60 311.387543
38.62 297.10437
38.64 286.953308
38.66 288.981049
38.68 299.942566
38.70 304.621674
38.72 304.578186
38.74 304.201233
38.76 298.970123
38.78 289.431061
38.80 301.343414
38.82 295.348602
38.84 297.137817
38.86 310.91153
38.88 297.263428
38.90 293.256622
38.92 291.84079
38.94 298.439087
38.96 295.412445
38.98 293.36377
39.00 296.888489
39.02 291.298431
39.04 288.465332
39.06 285.431244
39.08 285.176422
39.10 297.851776
39.12 301.637329
39.14 284.181274
39.16 281.441559
39.18 280.103973
39.20 290.474243
39.22 289.038483
39.24 291.831268
39.26 298.066895
39.28 294.413116
39.30 296.137634
39.32 281.759369
39.34 283.199066
39.36 279.467224
39.38 283.781616
39.40 294.941833
39.42 282.111786
39.44 273.324158
39.46 276.637634
39.48 274.896118
39.50 281.515442
39.52 283.918579
39.54 288.70459
39.56 285.842773
39.58 274.110504
39.60 273.910797
39.62 269.457855
39.64 274.245178
39.66 287.219727
39.68 277.040619
39.70 277.509674
39.72 270.29538
39.74 273.277496
39.76 267.922119
39.78 272.954498
39.80 271.430847
39.82 268.087067
39.84 275.377716
39.86 286.634033
39.88 261.106781
39.90 255.629028
39.92 268.087006
39.94 269.458923
39.96 266.213409
39.98 266.77359
40.00 263.970795
