!@!!GADDS PLOTSO FILE: Chi integration type
!@!!Title/SampleName: ML_MAPbX3
!@!!User: NREL
!@!!Site: NREL SERF C211; SN 2510
!@!!Frame: 081022_MLProject_000_014.gfrm
!@!!Wavelengths    1.54184   1.54056   1.54439
!@!!Frame angles: 2Theta: 28.000 Omega: 5.000 Phi: 0.000 Chi: 90.000
!@!!Integration range: 2Theta: 10.000 to 40.000  Gamma: -135.000 to -110.000
!@!!Integration method: bin normalized
!@!N
!@!SS
!@!M
!@!L 0.0 0.0 0.0 0.0
!@!XDegrees
!@!YCounts
10.00 163.626144
10.02 160.411072
10.04 156.879257
10.06 152.73436
10.08 152.484848
10.10 158.399872
10.12 148.884888
10.14 160.516174
10.16 162.03302
10.18 148.672104
10.20 149.22081
10.22 148.944244
10.24 143.217026
10.26 175.516937
10.28 169.448441
10.30 173.850479
10.32 185.910934
10.34 185.107346
10.36 174.220306
10.38 156.841415
10.40 164.652466
10.42 166.287903
10.44 165.919037
10.46 169.19194
10.48 176.677032
10.50 178.131912
10.52 160.383957
10.54 181.521225
10.56 167.536133
10.58 163.285767
10.60 159.526489
10.62 187.40274
10.64 196.173309
10.66 197.432434
10.68 173.494354
10.70 175.725754
10.72 180.212921
10.74 178.133591
10.76 193.5784
10.78 192.947845
10.80 195.18985
10.82 186.899734
10.84 174.877029
10.86 178.88205
10.88 173.736832
10.90 182.019638
10.92 190.126373
10.94 195.347595
10.96 194.401306
10.98 198.13002
11.00 198.393173
11.02 186.055588
11.04 198.084274
11.06 203.203552
11.08 194.860672
11.10 198.723633
11.12 206.305283
11.14 209.111832
11.16 194.877747
11.18 202.503647
11.20 209.819046
11.22 197.551453
11.24 196.369186
11.26 206.096024
11.28 216.776382
11.30 214.533554
11.32 190.740387
11.34 183.985779
11.36 208.985809
11.38 217.856537
11.40 225.513809
11.42 225.220825
11.44 208.468277
11.46 206.059174
11.48 215.30748
11.50 205.791718
11.52 230.773026
11.54 220.81604
11.56 215.259445
11.58 232.885925
11.60 230.811432
11.62 227.579727
11.64 224.109268
11.66 229.643402
11.68 219.684113
11.70 206.956909
11.72 224.996628
11.74 231.787537
11.76 240.243546
11.78 243.492203
11.80 234.341019
11.82 223.531677
11.84 231.035782
11.86 224.156876
11.88 224.60997
11.90 215.775696
11.92 231.835754
11.94 231.873734
11.96 229.402161
11.98 218.97908
12.00 215.581894
12.02 221.290848
12.04 232.72673
12.06 216.425323
12.08 232.943405
12.10 243.349792
12.12 228.505371
12.14 244.111084
12.16 261.525909
12.18 253.073669
12.20 251.657806
12.22 251.153229
12.24 252.838852
12.26 253.005203
12.28 249.040726
12.30 246.955963
12.32 239.249756
12.34 251.24028
12.36 266.311066
12.38 267.220673
12.40 274.909393
12.42 262.147461
12.44 250.279495
12.46 248.458405
12.48 238.956314
12.50 237.244171
12.52 236.710724
12.54 242.272888
12.56 242.46785
12.58 246.582779
12.60 246.235718
12.62 233.585785
12.64 249.369034
12.66 263.331024
12.68 250.006744
12.70 251.619644
12.72 257.363922
12.74 252.512924
12.76 249.697128
12.78 241.157623
12.80 265.078949
12.82 276.51828
12.84 265.559387
12.86 266.426025
12.88 256.321167
12.90 257.448944
12.92 262.987305
12.94 255.896896
12.96 269.867157
12.98 257.663025
13.00 266.686371
13.02 249.821182
13.04 256.565674
13.06 269.149689
13.08 246.538727
13.10 246.56398
13.12 261.79364
13.14 282.826294
13.16 274.917847
13.18 256.748596
13.20 250.292557
13.22 254.658264
13.24 258.950256
13.26 253.375992
13.28 249.014908
13.30 268.791077
13.32 261.085052
13.34 262.8703
13.36 271.131165
13.38 267.705231
13.40 255.003723
13.42 258.902496
13.44 257.947021
13.46 272.185303
13.48 266.442535
13.50 276.899017
13.52 274.848816
13.54 270.533905
13.56 272.536987
13.58 286.174316
13.60 285.943726
13.62 284.890778
13.64 273.441376
13.66 267.40741
13.68 256.248352
13.70 253.840698
13.72 265.854889
13.74 273.968079
13.76 292.764038
13.78 285.165436
13.80 287.221069
13.82 281.321381
13.84 282.124146
13.86 272.037476
13.88 279.162659
13.90 281.103638
13.92 275.906616
13.94 295.586578
13.96 303.44754
13.98 300.963348
14.00 292.661621
14.02 269.629333
14.04 257.875946
14.06 275.435791
14.08 294.240295
14.10 285.737915
14.12 294.188507
14.14 298.514069
14.16 290.215027
14.18 296.013153
14.20 298.503265
14.22 296.634949
14.24 295.816071
14.26 297.626984
14.28 296.987305
14.30 297.787262
14.32 287.433685
14.34 285.268646
14.36 293.783203
14.38 285.992889
14.40 283.388214
14.42 271.374603
14.44 284.518005
14.46 299.689972
14.48 316.788239
14.50 296.178009
14.52 295.118286
14.54 288.841461
14.56 297.180847
14.58 277.577271
14.60 280.262512
14.62 288.473511
14.64 291.497009
14.66 287.590607
14.68 293.862183
14.70 302.219238
14.72 303.988647
14.74 306.486389
14.76 299.743896
14.78 307.600067
14.80 304.272461
14.82 307.916992
14.84 311.535767
14.86 291.792725
14.88 294.698975
14.90 302.021118
14.92 302.841217
14.94 295.128632
14.96 296.89212
14.98 312.003601
15.00 311.655029
15.02 314.344269
15.04 309.490906
15.06 319.244354
15.08 327.460999
15.10 307.640747
15.12 313.120361
15.14 318.804718
15.16 306.735352
15.18 308.267944
15.20 314.011627
15.22 320.958038
15.24 340.960602
15.26 332.296783
15.28 317.493683
15.30 319.785736
15.32 329.420319
15.34 314.861176
15.36 312.470093
15.38 314.063171
15.40 313.790314
15.42 323.8396
15.44 331.027679
15.46 306.768982
15.48 321.411713
15.50 318.750458
15.52 318.355042
15.54 300.049652
15.56 302.662231
15.58 298.01059
15.60 301.980438
15.62 301.611328
15.64 293.405243
15.66 297.350861
15.68 289.097687
15.70 297.203003
15.72 296.285858
15.74 295.394928
15.76 303.478241
15.78 303.60965
15.80 303.349518
15.82 302.434601
15.84 319.355347
15.86 304.997711
15.88 301.733673
15.90 300.312439
15.92 293.011841
15.94 302.660797
15.96 309.477753
15.98 309.314056
16.00 306.892426
16.02 294.28714
16.04 293.212372
16.06 310.276398
16.08 302.990234
16.10 297.435822
16.12 306.404633
16.14 311.602905
16.16 310.333466
16.18 300.734344
16.20 318.096771
16.22 331.895844
16.24 318.105438
16.26 316.490387
16.28 321.08313
16.30 313.260468
16.32 304.701202
16.34 296.451782
16.36 295.644287
16.38 299.551331
16.40 306.013855
16.42 311.49884
16.44 319.200958
16.46 314.275513
16.48 304.37085
16.50 310.360809
16.52 318.887085
16.54 319.632385
16.56 324.076996
16.58 317.678467
16.60 320.46991
16.62 326.424347
16.64 321.846313
16.66 324.774689
16.68 311.756897
16.70 326.881287
16.72 315.265961
16.74 305.702911
16.76 308.533142
16.78 314.136261
16.80 328.48999
16.82 335.043365
16.84 326.823181
16.86 332.924652
16.88 327.519043
16.90 331.327423
16.92 315.371094
16.94 329.291412
16.96 328.186157
16.98 317.014282
17.00 324.6185
17.02 332.524841
17.04 326.249084
17.06 332.027618
17.08 324.22406
17.10 327.959625
17.12 329.492523
17.14 329.613678
17.16 323.134003
17.18 329.573792
17.20 324.991211
17.22 316.523773
17.24 334.553864
17.26 321.418854
17.28 325.81366
17.30 333.591187
17.32 328.816925
17.34 338.02124
17.36 340.057556
17.38 335.931305
17.40 330.806732
17.42 328.209412
17.44 329.927307
17.46 332.82666
17.48 326.829834
17.50 336.419952
17.52 341.515472
17.54 324.524078
17.56 342.572571
17.58 357.490448
17.60 353.606842
17.62 355.209869
17.64 364.093719
17.66 351.854492
17.68 337.787292
17.70 330.483704
17.72 339.443542
17.74 354.887665
17.76 347.729279
17.78 339.473541
17.80 359.770416
17.82 341.565216
17.84 339.459167
17.86 357.685394
17.88 357.472931
17.90 368.91803
17.92 360.475189
17.94 353.232361
17.96 356.484253
17.98 348.207397
18.00 363.538055
18.02 373.372925
18.04 365.892853
18.06 358.697723
18.08 350.874298
18.10 355.640839
18.12 353.308472
18.14 363.42746
18.16 362.947937
18.18 359.292145
18.20 364.942322
18.22 358.828552
18.24 360.131989
18.26 366.809326
18.28 363.547546
18.30 366.550537
18.32 353.002625
18.34 360.191589
18.36 369.136169
18.38 386.99884
18.40 357.172943
18.42 357.926147
18.44 375.949646
18.46 358.083191
18.48 368.906464
18.50 376.761871
18.52 375.447235
18.54 375.637146
18.56 382.358826
18.58 376.35376
18.60 387.342896
18.62 385.736389
18.64 372.538025
18.66 370.532898
18.68 365.72348
18.70 367.962555
18.72 387.534882
18.74 389.628632
18.76 383.112732
18.78 371.162811
18.80 366.676605
18.82 363.076355
18.84 373.915222
18.86 385.310822
18.88 387.260529
18.90 373.879944
18.92 386.732452
18.94 403.985382
18.96 404.799164
18.98 406.237244
19.00 396.88269
19.02 395.701477
19.04 390.801086
19.06 380.697601
19.08 393.513824
19.10 400.673035
19.12 405.866791
19.14 385.27832
19.16 383.040558
19.18 394.622681
19.20 420.523743
19.22 433.345276
19.24 409.934509
19.26 415.127045
19.28 407.521667
19.30 394.794952
19.32 398.609375
19.34 392.388977
19.36 394.822754
19.38 420.508026
19.40 415.542633
19.42 407.291779
19.44 399.032928
19.46 412.779907
19.48 421.77536
19.50 410.735046
19.52 407.914459
19.54 417.683746
19.56 420.803589
19.58 407.023834
19.60 415.616241
19.62 420.226593
19.64 424.082672
19.66 414.891235
19.68 395.118195
19.70 407.801056
19.72 428.803558
19.74 431.491791
19.76 411.469116
19.78 407.425812
19.80 412.170868
19.82 416.200165
19.84 407.676453
19.86 419.496948
19.88 439.735321
19.90 433.011871
19.92 418.350647
19.94 433.839386
19.96 452.592987
19.98 455.199066
20.00 447.394897
20.02 454.106476
20.04 443.815704
20.06 443.069611
20.08 436.589142
20.10 423.513489
20.12 428.201447
20.14 442.153961
20.16 436.330688
20.18 452.289581
20.20 446.769226
20.22 433.325806
20.24 434.732483
20.26 433.503937
20.28 439.585999
20.30 439.866455
20.32 453.500824
20.34 456.85022
20.36 446.308197
20.38 448.822235
20.40 445.044922
20.42 459.241913
20.44 466.178192
20.46 460.413147
20.48 475.371521
20.50 468.601257
20.52 450.053802
20.54 445.576385
20.56 450.176117
20.58 454.883209
20.60 454.610748
20.62 448.765717
20.64 447.678833
20.66 465.149567
20.68 460.767456
20.70 484.180237
20.72 471.425079
20.74 465.20163
20.76 462.00177
20.78 470.296753
20.80 466.237549
20.82 468.493408
20.84 469.116791
20.86 477.35257
20.88 469.498413
20.90 473.207581
20.92 469.583557
20.94 476.303101
20.96 476.216461
20.98 486.291718
21.00 483.072723
21.02 480.851318
21.04 477.794769
21.06 489.186707
21.08 482.590302
21.10 476.58609
21.12 486.526672
21.14 492.774933
21.16 479.814392
21.18 474.55191
21.20 477.916718
21.22 482.361359
21.24 504.720398
21.26 517.296997
21.28 518.104919
21.30 504.887756
21.32 509.617371
21.34 510.22998
21.36 509.598114
21.38 523.573853
21.40 529.662231
21.42 524.786377
21.44 522.561157
21.46 527.690552
21.48 513.72168
21.50 517.25415
21.52 524.571167
21.54 515.650879
21.56 518.53772
21.58 536.316162
21.60 545.467407
21.62 527.395203
21.64 536.339905
21.66 536.372559
21.68 525.447021
21.70 517.387939
21.72 511.175415
21.74 526.806824
21.76 534.292175
21.78 540.944824
21.80 541.495911
21.82 519.760193
21.84 521.305054
21.86 530.640564
21.88 533.620239
21.90 533.114563
21.92 521.316528
21.94 521.989258
21.96 544.472839
21.98 536.340881
22.00 535.552795
22.02 540.441467
22.04 543.206543
22.06 544.742188
22.08 538.896484
22.10 532.447144
22.12 515.323486
22.14 519.512329
22.16 536.302856
22.18 545.26593
22.20 550.598755
22.22 531.978027
22.24 525.049072
22.26 518.454346
22.28 522.615234
22.30 516.306458
22.32 532.389282
22.34 542.332336
22.36 529.291748
22.38 513.272522
22.40 522.150757
22.42 533.389709
22.44 531.531677
22.46 523.40625
22.48 523.134277
22.50 523.405884
22.52 538.88916
22.54 544.320801
22.56 527.302368
22.58 525.981812
22.60 553.848511
22.62 543.562134
22.64 529.293335
22.66 517.128174
22.68 527.417419
22.70 531.100098
22.72 540.758728
22.74 556.64624
22.76 562.365723
22.78 535.781372
22.80 525.561951
22.82 544.665527
22.84 538.292358
22.86 537.155151
22.88 546.463623
22.90 549.815613
22.92 544.231812
22.94 537.414795
22.96 556.811218
22.98 551.086609
23.00 552.817444
23.02 542.711487
23.04 553.123962
23.06 562.494995
23.08 563.714355
23.10 557.711792
23.12 550.066345
23.14 545.449341
23.16 560.52301
23.18 554.339355
23.20 538.171753
23.22 558.966064
23.24 583.306824
23.26 578.495667
23.28 567.258667
23.30 579.892456
23.32 557.050415
23.34 541.03363
23.36 557.272461
23.38 574.46283
23.40 575.419617
23.42 569.444519
23.44 573.443298
23.46 567.635437
23.48 569.873108
23.50 554.211182
23.52 544.825439
23.54 549.518616
23.56 546.837036
23.58 556.639038
23.60 570.296875
23.62 560.020691
23.64 553.225952
23.66 559.742798
23.68 582.837646
23.70 567.70929
23.72 567.778809
23.74 564.856445
23.76 563.582397
23.78 558.770447
23.80 550.555786
23.82 549.129883
23.84 553.830505
23.86 561.301636
23.88 569.405457
23.90 565.075073
23.92 547.813293
23.94 532.943054
23.96 555.284912
23.98 573.197327
24.00 573.529175
24.02 571.607666
24.04 574.952881
24.06 575.037231
24.08 569.621765
24.10 584.719543
24.12 579.991699
24.14 566.44989
24.16 580.000732
24.18 575.870911
24.20 564.717041
24.22 569.854065
24.24 571.23175
24.26 578.148926
24.28 554.30011
24.30 563.142395
24.32 573.770386
24.34 573.224609
24.36 565.389893
24.38 572.230774
24.40 585.782532
24.42 594.474854
24.44 568.990051
24.46 564.140198
24.48 580.032471
24.50 574.110413
24.52 567.434265
24.54 555.863098
24.56 580.759583
24.58 580.787903
24.60 575.354431
24.62 580.441284
24.64 586.284485
24.66 578.095764
24.68 569.298279
24.70 571.27002
24.72 578.811401
24.74 581.607727
24.76 566.005676
24.78 571.891541
24.80 577.930359
24.82 587.991333
24.84 597.068665
24.86 598.191895
24.88 593.400879
24.90 581.277771
24.92 560.860046
24.94 570.038879
24.96 586.90918
24.98 593.057922
25.00 602.627747
25.02 595.216492
25.04 581.838196
25.06 571.950684
25.08 578.616333
25.10 581.263245
25.12 589.082581
25.14 592.861938
25.16 587.787598
25.18 583.439453
25.20 599.579468
25.22 583.13739
25.24 573.854858
25.26 571.979492
25.28 570.034546
25.30 588.086243
25.32 587.34729
25.34 563.073425
25.36 577.268738
25.38 579.661682
25.40 568.103271
25.42 579.448853
25.44 599.238403
25.46 586.671875
25.48 569.496216
25.50 570.771912
25.52 585.448547
25.54 570.069946
25.56 572.00708
25.58 583.731995
25.60 586.61853
25.62 582.649231
25.64 581.348267
25.66 585.789978
25.68 576.35907
25.70 580.357727
25.72 577.993347
25.74 573.618164
25.76 572.672424
25.78 575.545288
25.80 591.122253
25.82 601.223022
25.84 592.456848
25.86 592.302063
25.88 572.449707
25.90 578.042908
25.92 583.352234
25.94 570.11322
25.96 566.782043
25.98 573.685364
26.00 597.61731
26.02 601.511902
26.04 583.808533
26.06 578.386658
26.08 582.012146
26.10 582.820068
26.12 575.200378
26.14 573.638916
26.16 574.421021
26.18 580.730591
26.20 568.145386
26.22 573.743408
26.24 584.900208
26.26 584.247314
26.28 574.89032
26.30 575.562805
26.32 580.352966
26.34 582.163086
26.36 598.282288
26.38 582.203125
26.40 585.471069
26.42 572.498962
26.44 563.097595
26.46 570.364624
26.48 583.155701
26.50 568.925171
26.52 556.854553
26.54 551.994934
26.56 569.260437
26.58 582.051392
26.60 587.904663
26.62 585.237915
26.64 578.042297
26.66 572.170349
26.68 581.913879
26.70 581.681641
26.72 591.625854
26.74 594.925781
26.76 588.204651
26.78 580.279297
26.80 587.341919
26.82 576.532776
26.84 579.877991
26.86 579.796753
26.88 583.422791
26.90 590.018616
26.92 597.761047
26.94 584.3927
26.96 567.742371
26.98 568.895935
27.00 574.069824
27.02 582.214233
27.04 577.885193
27.06 571.654602
27.08 558.895325
27.10 570.68396
27.12 588.080322
27.14 589.147461
27.16 574.250916
27.18 571.017212
27.20 557.56366
27.22 558.225342
27.24 573.297424
27.26 580.296265
27.28 572.827332
27.30 572.812195
27.32 568.048889
27.34 573.41217
27.36 583.725525
27.38 574.735413
27.40 556.133545
27.42 554.506287
27.44 568.867188
27.46 572.546326
27.48 568.581604
27.50 567.515076
27.52 588.898926
27.54 595.051025
27.56 578.638977
27.58 575.790588
27.60 569.054626
27.62 578.881531
27.64 584.597168
27.66 583.056946
27.68 567.891235
27.70 583.819885
27.72 582.973145
27.74 569.528687
27.76 566.727539
27.78 551.135864
27.80 547.205322
27.82 554.386414
27.84 561.917908
27.86 557.86438
27.88 561.045471
27.90 570.226074
27.92 596.791504
27.94 569.441833
27.96 562.552429
27.98 577.05896
28.00 583.590576
28.02 573.037354
28.04 569.00354
28.06 566.907959
28.08 569.536072
28.10 558.76532
28.12 561.879944
28.14 581.007935
28.16 569.423828
28.18 570.969177
28.20 575.46167
28.22 572.401245
28.24 582.593872
28.26 577.241516
28.28 569.024963
28.30 583.71051
28.32 592.496582
28.34 588.391052
28.36 569.758301
28.38 560.872009
28.40 561.949036
28.42 568.580383
28.44 567.207092
28.46 567.939575
28.48 566.609192
28.50 573.387695
28.52 577.920532
28.54 563.088318
28.56 560.337952
28.58 570.855347
28.60 581.728333
28.62 581.248718
28.64 570.288818
28.66 567.477417
28.68 583.421631
28.70 577.176636
28.72 570.758789
28.74 564.098083
28.76 571.370605
28.78 572.053162
28.80 565.74469
28.82 563.169067
28.84 572.092468
28.86 567.177856
28.88 573.679016
28.90 568.982971
28.92 561.979004
28.94 558.686768
28.96 566.974731
28.98 573.342041
29.00 580.841492
29.02 567.29071
29.04 565.021423
29.06 563.094177
29.08 568.135071
29.10 587.25238
29.12 575.336365
29.14 572.914063
29.16 552.977051
29.18 554.054993
29.20 558.253906
29.22 547.924561
29.24 546.936646
29.26 563.477478
29.28 557.504883
29.30 551.128967
29.32 553.896667
29.34 549.770447
29.36 539.662354
29.38 552.195068
29.40 550.231506
29.42 549.48761
29.44 545.848511
29.46 544.69165
29.48 536.333435
29.50 546.266174
29.52 550.391052
29.54 545.409058
29.56 536.533569
29.58 537.188049
29.60 547.520813
29.62 535.233826
29.64 533.112
29.66 557.09729
29.68 569.407532
29.70 558.761841
29.72 536.182129
29.74 529.674255
29.76 519.946045
29.78 539.535461
29.80 542.913452
29.82 528.671204
29.84 513.152161
29.86 529.546631
29.88 534.75177
29.90 534.412292
29.92 531.235596
29.94 531.477173
29.96 532.039001
29.98 534.334595
30.00 528.663757
30.02 535.416199
30.04 532.700562
30.06 537.506897
30.08 545.847534
30.10 547.804993
30.12 534.156006
30.14 539.715149
30.16 541.888733
30.18 532.297119
30.20 529.374451
30.22 535.288574
30.24 509.557526
30.26 518.887878
30.28 536.11499
30.30 537.798828
30.32 531.902588
30.34 528.177673
30.36 541.249939
30.38 545.938843
30.40 531.713745
30.42 524.092651
30.44 523.582275
30.46 544.542175
30.48 538.258179
30.50 530.504272
30.52 539.950745
30.54 530.719788
30.56 520.574341
30.58 524.226807
30.60 550.182678
30.62 551.050903
30.64 532.807251
30.66 521.545715
30.68 516.743042
30.70 514.499878
30.72 516.59198
30.74 528.19519
30.76 531.120361
30.78 522.979736
30.80 512.937256
30.82 522.943115
30.84 529.814453
30.86 529.41272
30.88 519.956543
30.90 501.853638
30.92 511.36911
30.94 523.365784
30.96 529.270081
30.98 530.447083
31.00 519.439392
31.02 499.310516
31.04 507.08429
31.06 511.245209
31.08 493.09256
31.10 496.896637
31.12 506.72583
31.14 504.964447
31.16 491.224518
31.18 487.434387
31.20 501.561462
31.22 519.606628
31.24 494.429474
31.26 493.144012
31.28 498.535858
31.30 504.541473
31.32 509.681061
31.34 500.23645
31.36 487.038696
31.38 461.263367
31.40 472.710693
31.42 497.565613
31.44 498.149872
31.46 481.306458
31.48 490.02832
31.50 501.273407
31.52 489.823364
31.54 483.427856
31.56 475.391418
31.58 459.660736
31.60 461.241852
31.62 475.452362
31.64 474.682495
31.66 475.068024
31.68 475.751434
31.70 487.352875
31.72 494.043823
31.74 493.79657
31.76 491.776642
31.78 477.408356
31.80 476.769592
31.82 484.706482
31.84 488.319489
31.86 493.249237
31.88 487.631714
31.90 479.578735
31.92 482.286926
31.94 483.685272
31.96 477.877228
31.98 486.764282
32.00 490.222107
32.02 494.436005
32.04 484.861298
32.06 481.509003
32.08 495.741516
32.10 494.630219
32.12 489.544403
32.14 474.542053
32.16 485.299927
32.18 483.952087
32.20 486.500214
32.22 489.669006
32.24 479.889801
32.26 476.319427
32.28 482.245148
32.30 493.689453
32.32 495.100342
32.34 480.412537
32.36 480.096497
32.38 485.166718
32.40 487.769989
32.42 469.88324
32.44 474.904297
32.46 465.108246
32.48 470.459839
32.50 467.020081
32.52 473.972931
32.54 481.102753
32.56 489.45285
32.58 473.756622
32.60 471.234406
32.62 464.602539
32.64 462.740723
32.66 470.43335
32.68 475.153992
32.70 471.701447
32.72 461.388458
32.74 455.598907
32.76 446.537781
32.78 459.032684
32.80 465.143097
32.82 475.842377
32.84 468.024933
32.86 467.116608
32.88 452.254181
32.90 448.546234
32.92 473.028931
32.94 466.706451
32.96 449.928864
32.98 450.908752
33.00 455.325165
33.02 466.931122
33.04 471.835358
33.06 459.294037
33.08 459.168915
33.10 474.022552
33.12 448.628357
33.14 448.255463
33.16 449.248291
33.18 435.791656
33.20 423.583771
33.22 425.303558
33.24 432.342224
33.26 430.851349
33.28 443.51358
33.30 453.773376
33.32 459.961609
33.34 451.670807
33.36 438.487946
33.38 450.014893
33.40 438.721954
33.42 436.970276
33.44 440.293274
33.46 450.414001
33.48 455.311188
33.50 456.079956
33.52 449.379913
33.54 443.846161
33.56 439.715088
33.58 436.89212
33.60 445.676605
33.62 424.388245
33.64 416.836823
33.66 433.271484
33.68 431.529724
33.70 436.112335
33.72 446.109863
33.74 442.702118
33.76 447.590149
33.78 445.587311
33.80 432.168335
33.82 423.836182
33.84 435.894073
33.86 415.876801
33.88 421.120239
33.90 421.562622
33.92 429.62262
33.94 437.761536
33.96 443.372925
33.98 448.602051
34.00 443.139862
34.02 433.447998
34.04 443.84964
34.06 440.961456
34.08 433.349945
34.10 432.89505
34.12 440.014893
34.14 444.249207
34.16 441.219238
34.18 435.814301
34.20 432.677399
34.22 431.156769
34.24 440.147552
34.26 451.39798
34.28 440.820465
34.30 447.28186
34.32 451.251404
34.34 459.787659
34.36 467.854462
34.38 453.6987
34.40 444.26123
34.42 451.817352
34.44 460.520142
34.46 465.637604
34.48 459.997162
34.50 474.605133
34.52 470.904816
34.54 461.138763
34.56 456.50647
34.58 449.802673
34.60 449.359528
34.62 453.763306
34.64 458.175385
34.66 438.831207
34.68 424.263916
34.70 443.521393
34.72 457.833466
34.74 448.756775
34.76 448.561096
34.78 448.017242
34.80 441.399597
34.82 446.039398
34.84 446.557037
34.86 441.813843
34.88 432.940674
34.90 418.325287
34.92 433.395844
34.94 422.927795
34.96 422.023834
34.98 424.94339
35.00 413.702911
35.02 419.891815
35.04 426.976654
35.06 428.113861
35.08 419.260895
35.10 421.194458
35.12 417.3302
35.14 403.980835
35.16 413.747498
35.18 415.784546
35.20 415.253693
35.22 397.883606
35.24 405.677185
35.26 398.616333
35.28 396.455322
35.30 400.144165
35.32 398.904541
35.34 397.183838
35.36 386.828033
35.38 395.502594
35.40 384.678375
35.42 383.9263
35.44 394.934418
35.46 400.184418
35.48 397.384827
35.50 384.008942
35.52 379.72052
35.54 385.530182
35.56 385.94754
35.58 384.751587
35.60 383.905365
35.62 384.356628
35.64 389.852295
35.66 373.002899
35.68 367.986603
35.70 377.902435
35.72 375.30838
35.74 371.502869
35.76 370.23819
35.78 373.883087
35.80 395.298828
35.82 381.978546
35.84 383.794617
35.86 381.971313
35.88 377.548035
35.90 370.209137
35.92 375.079926
35.94 386.778931
35.96 383.567993
35.98 386.994263
36.00 372.312225
36.02 356.583496
36.04 358.812073
36.06 358.407623
36.08 369.472229
36.10 378.159546
36.12 382.905426
36.14 369.537933
36.16 364.555878
36.18 369.926697
36.20 370.322845
36.22 360.70639
36.24 361.455811
36.26 357.506592
36.28 360.558319
36.30 358.340607
36.32 356.787903
36.34 377.957672
36.36 380.676605
36.38 366.357208
36.40 354.502014
36.42 351.192902
36.44 342.744568
36.46 344.052094
36.48 351.743713
36.50 364.279999
36.52 350.586365
36.54 357.846069
36.56 365.726624
36.58 365.436249
36.60 355.812988
36.62 355.856567
36.64 356.413208
36.66 354.474976
36.68 360.366272
36.70 352.64502
36.72 344.438019
36.74 367.219574
36.76 365.599243
36.78 362.034637
36.80 370.133667
36.82 354.345215
36.84 344.527924
36.86 355.654816
36.88 354.731842
36.90 363.569244
36.92 358.31485
36.94 360.519379
36.96 337.074371
36.98 335.834808
37.00 347.160583
37.02 351.487244
37.04 348.510864
37.06 335.867218
37.08 340.940552
37.10 336.79718
37.12 340.565948
37.14 342.620667
37.16 343.833435
37.18 335.431458
37.20 333.39859
37.22 340.372162
37.24 348.865997
37.26 344.669952
37.28 343.673035
37.30 333.409576
37.32 340.682892
37.34 339.995819
37.36 355.514801
37.38 355.679016
37.40 344.611572
37.42 332.548065
37.44 329.999664
37.46 325.538513
37.48 338.878662
37.50 345.772003
37.52 341.816437
37.54 339.53772
37.56 334.414429
37.58 349.226776
37.60 355.861969
37.62 339.872925
37.64 328.014954
37.66 346.684967
37.68 358.7229
37.70 336.829071
37.72 333.078766
37.74 325.549072
37.76 332.309418
37.78 336.602692
37.80 347.942902
37.82 340.752716
37.84 343.060394
37.86 348.819031
37.88 355.415588
37.90 348.038696
37.92 340.586029
37.94 345.212067
37.96 340.16449
37.98 348.884338
38.00 348.553955
38.02 337.222961
38.04 346.10199
38.06 343.171051
38.08 339.871826
38.10 336.559692
38.12 321.011566
38.14 326.16861
38.16 323.782867
38.18 315.663757
38.20 325.033691
38.22 321.426727
38.24 321.0401
38.26 318.444733
38.28 328.961456
38.30 337.036407
38.32 335.655396
38.34 333.169739
38.36 335.00705
38.38 326.25946
38.40 320.755127
38.42 327.666779
38.44 322.165833
38.46 316.322937
38.48 317.017456
38.50 321.731476
38.52 316.9552
38.54 307.612396
38.56 317.268494
38.58 313.689606
38.60 314.826385
38.62 316.870789
38.64 307.685944
38.66 294.470795
38.68 299.448547
38.70 313.052643
38.72 316.576355
38.74 323.050262
38.76 306.384155
38.78 307.583191
38.80 308.677155
38.82 321.234772
38.84 301.868073
38.86 298.073029
38.88 301.150116
38.90 300.955597
38.92 297.426392
38.94 302.88739
38.96 308.45871
38.98 300.563538
39.00 298.723663
39.02 293.938477
39.04 308.283417
39.06 301.512512
39.08 300.01413
39.10 309.711304
39.12 313.084137
39.14 316.616699
39.16 296.958557
39.18 296.356415
39.20 296.040405
39.22 292.060944
39.24 287.418854
39.26 312.932281
39.28 303.210907
39.30 301.474487
39.32 303.326141
39.34 291.252686
39.36 286.457062
39.38 294.059082
39.40 309.312042
39.42 288.244202
39.44 289.338287
39.46 292.672943
39.48 287.592407
39.50 285.619934
39.52 289.751434
39.54 296.993439
39.56 286.486633
39.58 285.730591
39.60 292.349731
39.62 291.794891
39.64 293.347473
39.66 291.868042
39.68 281.183777
39.70 264.52774
39.72 268.693878
39.74 280.948334
39.76 290.168549
39.78 286.259369
39.80 288.607605
39.82 284.819489
39.84 282.814941
39.86 288.540009
39.88 282.945129
39.90 286.77005
39.92 279.135956
39.94 272.233002
39.96 260.373383
39.98 267.081116
40.00 277.355804
