!@!!GADDS PLOTSO FILE: Chi integration type
!@!!Title/SampleName: ML_MAPbX3
!@!!User: NREL
!@!!Site: NREL SERF C211; SN 2510
!@!!Frame: C:\frames\rbelisle\MLProject\081022_MLProject_000_006.gfrm
!@!!Wavelengths    1.54184   1.54056   1.54439
!@!!Frame angles: 2Theta: 28.000 Omega: 5.000 Phi: 0.000 Chi: 90.000
!@!!Integration range: 2Theta: 10.000 to 40.000  Gamma: -130.000 to -50.000
!@!!Integration method: bin normalized
!@!N
!@!SS
!@!M
!@!L 0.0 0.0 0.0 0.0
!@!XDegrees
!@!YCounts
10.00 227.17717
10.02 219.191818
10.04 212.197647
10.06 210.113647
10.08 209.121796
10.10 206.611847
10.12 214.742157
10.14 216.496323
10.16 214.192688
10.18 212.306473
10.20 217.353119
10.22 218.361465
10.24 220.557678
10.26 226.765305
10.28 222.283524
10.30 222.894501
10.32 224.528702
10.34 215.840622
10.36 223.973648
10.38 218.264389
10.40 217.893326
10.42 213.770721
10.44 215.731018
10.46 213.902115
10.48 218.53273
10.50 225.929047
10.52 224.44899
10.54 232.401245
10.56 229.778748
10.58 224.787949
10.60 233.048477
10.62 235.676773
10.64 236.335434
10.66 236.300507
10.68 236.355316
10.70 240.646255
10.72 229.046249
10.74 223.902451
10.76 230.045868
10.78 237.490326
10.80 228.310486
10.82 226.213791
10.84 227.940552
10.86 236.399521
10.88 233.092758
10.90 236.26564
10.92 238.710999
10.94 234.052551
10.96 235.063995
10.98 233.913437
11.00 237.353439
11.02 240.604294
11.04 232.681168
11.06 233.381607
11.08 236.093048
11.10 243.327576
11.12 246.502411
11.14 239.466949
11.16 238.315399
11.18 236.449493
11.20 237.853745
11.22 241.810852
11.24 235.772629
11.26 235.461899
11.28 237.608505
11.30 250.546097
11.32 248.157822
11.34 239.119125
11.36 243.37735
11.38 241.25499
11.40 239.870377
11.42 243.596817
11.44 249.138794
11.46 253.401764
11.48 253.079361
11.50 248.41394
11.52 245.329376
11.54 243.491943
11.56 251.444962
11.58 246.659912
11.60 249.364258
11.62 250.454041
11.64 244.122223
11.66 247.848679
11.68 251.491592
11.70 254.551392
11.72 248.794785
11.74 245.753342
11.76 251.396332
11.78 252.536026
11.80 251.179474
11.82 249.663025
11.84 248.445007
11.86 245.698761
11.88 246.032944
11.90 250.487045
11.92 253.82399
11.94 261.686981
11.96 249.41069
11.98 257.006622
12.00 257.591553
12.02 253.563217
12.04 260.989532
12.06 256.651001
12.08 251.96489
12.10 259.558929
12.12 259.715607
12.14 270.218719
12.16 261.464966
12.18 258.047699
12.20 263.229706
12.22 273.617493
12.24 277.867401
12.26 266.751526
12.28 261.013092
12.30 266.301056
12.32 273.828888
12.34 273.818268
12.36 267.727448
12.38 272.167694
12.40 266.452881
12.42 270.413086
12.44 270.466492
12.46 275.639893
12.48 269.792419
12.50 272.849487
12.52 263.797668
12.54 262.730438
12.56 269.685028
12.58 274.751099
12.60 278.628845
12.62 285.747467
12.64 282.54425
12.66 287.629608
12.68 292.108795
12.70 284.373383
12.72 278.14447
12.74 279.059784
12.76 287.243958
12.78 292.222321
12.80 288.195374
12.82 284.864746
12.84 294.822174
12.86 292.969452
12.88 286.016876
12.90 279.72171
12.92 283.708405
12.94 280.830933
12.96 291.281891
12.98 285.036926
13.00 276.585144
13.02 281.841583
13.04 278.627136
13.06 278.148865
13.08 284.219482
13.10 281.824646
13.12 278.362976
13.14 271.24173
13.16 283.397827
13.18 275.309082
13.20 275.861572
13.22 286.099976
13.24 285.69931
13.26 278.040222
13.28 277.230103
13.30 269.985138
13.32 276.549896
13.34 273.050568
13.36 272.631897
13.38 279.892639
13.40 284.662689
13.42 279.505951
13.44 278.700653
13.46 276.855347
13.48 286.946625
13.50 285.101532
13.52 286.420532
13.54 288.567963
13.56 290.52179
13.58 293.917694
13.60 291.583679
13.62 282.541931
13.64 285.55069
13.66 293.271667
13.68 294.789948
13.70 297.516449
13.72 280.325043
13.74 286.574432
13.76 291.206207
13.78 292.80246
13.80 295.545227
13.82 290.240143
13.84 299.336731
13.86 291.458099
13.88 291.940674
13.90 291.365967
13.92 289.135223
13.94 299.927917
13.96 304.554718
13.98 305.106934
14.00 299.154053
14.02 299.388397
14.04 300.566315
14.06 296.994904
14.08 297.749817
14.10 297.956116
14.12 300.224548
14.14 311.87326
14.16 303.982483
14.18 301.880188
14.20 307.868164
14.22 306.198181
14.24 309.361145
14.26 315.349792
14.28 324.184723
14.30 321.030975
14.32 321.348236
14.34 330.377625
14.36 334.854004
14.38 335.143036
14.40 339.630859
14.42 341.185181
14.44 352.988159
14.46 361.815918
14.48 360.6073
14.50 367.066711
14.52 382.922791
14.54 383.045624
14.56 375.591003
14.58 373.934723
14.60 381.933411
14.62 388.885803
14.64 389.498413
14.66 380.830688
14.68 381.976318
14.70 385.835602
14.72 386.367676
14.74 388.885071
14.76 380.430511
14.78 380.480316
14.80 378.677826
14.82 384.073914
14.84 376.544189
14.86 383.017212
14.88 382.621674
14.90 394.099884
14.92 396.73822
14.94 404.296356
14.96 415.869049
14.98 426.699615
15.00 422.522949
15.02 428.006317
15.04 442.349121
15.06 461.040741
15.08 474.899292
15.10 488.710052
15.12 504.54892
15.14 526.576355
15.16 552.660645
15.18 556.575928
15.20 575.029053
15.22 621.359863
15.24 671.374268
15.26 703.752869
15.28 733.312805
15.30 759.564331
15.32 804.361023
15.34 847.325378
15.36 879.462646
15.38 895.074768
15.40 920.17218
15.42 935.304199
15.44 937.283875
15.46 927.40094
15.48 899.43927
15.50 852.947693
15.52 789.999512
15.54 738.996033
15.56 711.765503
15.58 653.045105
15.60 605.771362
15.62 552.927002
15.64 528.2276
15.66 503.845062
15.68 469.913208
15.70 448.724792
15.72 429.522247
15.74 417.170959
15.76 409.349396
15.78 407.313599
15.80 392.954346
15.82 383.600006
15.84 378.720276
15.86 381.383301
15.88 379.428864
15.90 364.108521
15.92 357.80722
15.94 358.098389
15.96 362.064362
15.98 359.684052
16.00 350.048218
16.02 344.177002
16.04 347.505035
16.06 344.832581
16.08 339.206451
16.10 344.636719
16.12 351.0979
16.14 344.738342
16.16 340.662659
16.18 337.933502
16.20 344.387177
16.22 336.760101
16.24 344.484802
16.26 339.245789
16.28 331.359497
16.30 334.26004
16.32 331.346802
16.34 339.301147
16.36 337.54715
16.38 340.718079
16.40 335.532043
16.42 329.189606
16.44 330.81311
16.46 330.588867
16.48 329.564362
16.50 330.752991
16.52 339.713593
16.54 339.949921
16.56 336.318665
16.58 338.905304
16.60 332.884552
16.62 333.940582
16.64 333.699524
16.66 344.487396
16.68 347.394012
16.70 342.222809
16.72 337.495056
16.74 342.554047
16.76 339.062195
16.78 336.269226
16.80 325.678192
16.82 338.521118
16.84 335.753204
16.86 336.708923
16.88 338.35376
16.90 335.930328
16.92 339.355682
16.94 344.091553
16.96 343.10498
16.98 339.353729
17.00 331.708588
17.02 329.180328
17.04 342.773132
17.06 343.340759
17.08 345.592834
17.10 339.031219
17.12 336.673065
17.14 349.777863
17.16 350.895325
17.18 348.082367
17.20 338.916107
17.22 339.88562
17.24 336.039886
17.26 349.148834
17.28 357.858276
17.30 354.799591
17.32 347.150787
17.34 345.698212
17.36 351.544617
17.38 345.234497
17.40 342.573578
17.42 342.015839
17.44 346.355896
17.46 349.818726
17.48 351.933716
17.50 350.014862
17.52 350.59024
17.54 356.33725
17.56 362.724976
17.58 355.398834
17.60 355.837036
17.62 357.400085
17.64 356.527557
17.66 352.738708
17.68 354.89267
17.70 361.246002
17.72 358.210999
17.74 361.717407
17.76 367.99234
17.78 365.045898
17.80 361.880646
17.82 369.456329
17.84 375.183105
17.86 369.868439
17.88 369.011688
17.90 371.918457
17.92 367.721191
17.94 367.033783
17.96 364.260254
17.98 369.721588
18.00 371.378479
18.02 372.401062
18.04 369.411102
18.06 368.5867
18.08 366.757233
18.10 373.991852
18.12 377.540009
18.14 377.819366
18.16 362.614471
18.18 356.805695
18.20 365.233429
18.22 375.736298
18.24 372.277893
18.26 370.979065
18.28 382.484131
18.30 373.090515
18.32 383.8685
18.34 382.377655
18.36 380.133423
18.38 377.037689
18.40 382.589966
18.42 385.711975
18.44 379.016998
18.46 379.578796
18.48 380.443207
18.50 388.06076
18.52 396.941528
18.54 391.466705
18.56 392.375549
18.58 391.557007
18.60 383.076874
18.62 381.527313
18.64 381.494537
18.66 385.073364
18.68 385.035004
18.70 379.128204
18.72 388.013916
18.74 387.788025
18.76 391.847626
18.78 389.906952
18.80 378.37793
18.82 389.531189
18.84 398.268372
18.86 395.465973
18.88 391.218933
18.90 399.300995
18.92 398.362396
18.94 393.768707
18.96 389.447876
18.98 386.333588
19.00 389.65274
19.02 391.919769
19.04 391.750061
19.06 397.235199
19.08 403.476501
19.10 398.681335
19.12 395.45166
19.14 406.536041
19.16 406.240417
19.18 403.830658
19.20 406.736969
19.22 399.50647
19.24 404.808228
19.26 404.770416
19.28 406.287445
19.30 409.019928
19.32 408.989441
19.34 407.499512
19.36 415.10788
19.38 412.536194
19.40 421.332306
19.42 419.50589
19.44 413.788727
19.46 416.746796
19.48 420.187317
19.50 417.026459
19.52 415.401337
19.54 416.702545
19.56 417.256561
19.58 415.243103
19.60 420.340637
19.62 423.008667
19.64 422.619232
19.66 421.640289
19.68 414.87793
19.70 427.378571
19.72 428.130737
19.74 426.212494
19.76 422.381836
19.78 425.512299
19.80 434.723633
19.82 429.758209
19.84 430.137634
19.86 428.463196
19.88 430.886444
19.90 425.322754
19.92 429.159546
19.94 434.224457
19.96 436.010834
19.98 431.279999
20.00 434.73407
20.02 430.794891
20.04 422.962433
20.06 431.937836
20.08 445.179657
20.10 450.068756
20.12 450.42099
20.14 446.097748
20.16 442.280029
20.18 441.386719
20.20 445.772552
20.22 444.18158
20.24 440.290009
20.26 448.675934
20.28 448.198181
20.30 445.226288
20.32 450.837585
20.34 463.514008
20.36 456.677307
20.38 457.353088
20.40 458.550568
20.42 458.520721
20.44 454.883972
20.46 462.752228
20.48 472.578644
20.50 464.665161
20.52 461.260162
20.54 449.73111
20.56 456.53186
20.58 461.175323
20.60 468.074554
20.62 464.381439
20.64 455.059113
20.66 459.613739
20.68 466.407349
20.70 470.989441
20.72 473.641571
20.74 474.228851
20.76 480.258026
20.78 486.526062
20.80 476.569244
20.82 471.850739
20.84 471.192688
20.86 472.530914
20.88 480.166138
20.90 483.304077
20.92 479.459412
20.94 474.619354
20.96 482.695526
20.98 482.933258
21.00 479.577881
21.02 483.566223
21.04 474.999146
21.06 477.96994
21.08 479.070282
21.10 483.529236
21.12 479.374329
21.14 479.468384
21.16 484.596008
21.18 483.590759
21.20 484.556396
21.22 483.625061
21.24 484.036652
21.26 486.327087
21.28 497.155884
21.30 500.877197
21.32 506.806976
21.34 504.487122
21.36 497.963959
21.38 498.808899
21.40 503.681885
21.42 498.629791
21.44 499.290192
21.46 498.854095
21.48 506.550873
21.50 509.811096
21.52 509.496002
21.54 513.858337
21.56 518.411072
21.58 516.421997
21.60 514.529358
21.62 517.341614
21.64 523.919739
21.66 524.80835
21.68 524.868835
21.70 528.942078
21.72 540.162903
21.74 534.498108
21.76 538.164307
21.78 535.706177
21.80 537.943909
21.82 540.135193
21.84 540.555969
21.86 538.495117
21.88 548.283203
21.90 550.5354
21.92 537.724365
21.94 533.973083
21.96 537.467834
21.98 535.491638
22.00 538.926697
22.02 538.787109
22.04 534.3573
22.06 532.523804
22.08 531.174744
22.10 533.130432
22.12 534.157349
22.14 539.335449
22.16 534.564941
22.18 530.134216
22.20 529.109985
22.22 529.22821
22.24 536.166687
22.26 535.171692
22.28 534.414612
22.30 527.401917
22.32 522.017639
22.34 518.420837
22.36 523.981995
22.38 525.607666
22.40 522.237244
22.42 522.79126
22.44 526.374878
22.46 527.763489
22.48 535.494934
22.50 529.516968
22.52 535.690125
22.54 544.590027
22.56 542.516907
22.58 544.137268
22.60 537.546753
22.62 524.848938
22.64 517.345764
22.66 534.662292
22.68 531.602417
22.70 533.409302
22.72 544.087708
22.74 539.367065
22.76 539.874023
22.78 536.544617
22.80 530.209412
22.82 525.259583
22.84 526.165222
22.86 537.409424
22.88 535.759888
22.90 538.391968
22.92 549.268188
22.94 548.605347
22.96 539.293335
22.98 539.886414
23.00 548.608765
23.02 545.60675
23.04 544.385132
23.06 551.522461
23.08 550.49585
23.10 542.328003
23.12 537.440063
23.14 539.230042
23.16 534.534302
23.18 537.532104
23.20 543.622253
23.22 535.157349
23.24 538.040344
23.26 550.322937
23.28 556.64679
23.30 556.985535
23.32 551.32196
23.34 546.453125
23.36 547.240234
23.38 547.629761
23.40 542.228638
23.42 548.218567
23.44 556.090576
23.46 542.436279
23.48 547.2677
23.50 559.117859
23.52 563.701111
23.54 561.377625
23.56 563.323364
23.58 561.657227
23.60 557.573059
23.62 558.146851
23.64 561.246094
23.66 563.738281
23.68 562.342468
23.70 552.617798
23.72 559.974243
23.74 561.183838
23.76 566.236755
23.78 561.555664
23.80 561.064026
23.82 567.213623
23.84 563.515564
23.86 556.298706
23.88 561.078491
23.90 555.546448
23.92 547.948853
23.94 548.336792
23.96 549.833618
23.98 555.555969
24.00 555.257813
24.02 553.069153
24.04 559.582581
24.06 549.740051
24.08 559.865295
24.10 561.965454
24.12 554.669617
24.14 547.535828
24.16 544.449585
24.18 549.259399
24.20 556.071289
24.22 564.229065
24.24 568.907227
24.26 566.198425
24.28 557.217346
24.30 555.063232
24.32 560.268005
24.34 558.002747
24.36 555.208679
24.38 557.152649
24.40 557.425415
24.42 556.583923
24.44 559.907959
24.46 566.506531
24.48 565.624939
24.50 563.711548
24.52 569.222778
24.54 568.854431
24.56 564.096252
24.58 554.637573
24.60 558.416382
24.62 559.666504
24.64 564.664734
24.66 562.674561
24.68 556.980408
24.70 555.037231
24.72 555.892151
24.74 558.008545
24.76 549.625916
24.78 551.16272
24.80 558.190369
24.82 563.469543
24.84 562.441956
24.86 562.055298
24.88 562.953735
24.90 554.70697
24.92 563.307007
24.94 572.071106
24.96 567.97876
24.98 569.642273
25.00 567.340942
25.02 556.948914
25.04 552.942627
25.06 553.374939
25.08 563.810059
25.10 561.664856
25.12 559.966248
25.14 573.513489
25.16 565.069702
25.18 568.922424
25.20 562.250488
25.22 558.414307
25.24 565.300415
25.26 567.979858
25.28 560.407959
25.30 557.345276
25.32 564.603271
25.34 562.771606
25.36 567.657776
25.38 556.171814
25.40 556.449097
25.42 551.817322
25.44 558.325928
25.46 560.836182
25.48 567.305237
25.50 573.603027
25.52 572.516113
25.54 566.518066
25.56 560.987427
25.58 560.938171
25.60 565.462219
25.62 571.583862
25.64 570.539612
25.66 560.019043
25.68 561.647827
25.70 565.993958
25.72 565.385803
25.74 568.771423
25.76 561.276733
25.78 564.978271
25.80 566.84021
25.82 567.336609
25.84 560.765259
25.86 567.341736
25.88 566.266113
25.90 561.842163
25.92 564.211609
25.94 558.812256
25.96 564.722595
25.98 564.250244
26.00 563.295898
26.02 562.885742
26.04 559.957886
26.06 569.30542
26.08 573.447998
26.10 572.709656
26.12 562.098022
26.14 563.12793
26.16 567.636536
26.18 560.859314
26.20 553.963684
26.22 555.105042
26.24 559.660339
26.26 552.646912
26.28 556.795715
26.30 559.133972
26.32 552.933472
26.34 555.785583
26.36 570.091248
26.38 559.915161
26.40 561.588745
26.42 558.372314
26.44 548.155334
26.46 553.226196
26.48 555.361023
26.50 556.217346
26.52 551.387207
26.54 556.23114
26.56 556.426819
26.58 557.182129
26.60 557.989258
26.62 553.165588
26.64 550.401489
26.66 556.509155
26.68 557.796143
26.70 556.24884
26.72 560.542664
26.74 556.308838
26.76 555.85199
26.78 547.921082
26.80 547.153259
26.82 551.305542
26.84 555.024109
26.86 558.12207
26.88 556.864685
26.90 571.226929
26.92 574.188538
26.94 559.126343
26.96 552.343201
26.98 551.088318
27.00 552.877686
27.02 559.417908
27.04 552.307861
27.06 550.444214
27.08 543.878418
27.10 549.646301
27.12 551.871643
27.14 551.544434
27.16 545.687744
27.18 549.591919
27.20 547.118713
27.22 553.251648
27.24 548.908386
27.26 540.194397
27.28 544.620605
27.30 553.587952
27.32 555.765259
27.34 555.544373
27.36 553.748962
27.38 548.190552
27.40 547.871338
27.42 548.411743
27.44 549.871216
27.46 556.111389
27.48 552.707886
27.50 546.629761
27.52 546.052429
27.54 547.765076
27.56 547.452271
27.58 542.597168
27.60 550.957336
27.62 548.132874
27.64 554.430786
27.66 558.102112
27.68 559.14801
27.70 556.314209
27.72 561.103577
27.74 552.885254
27.76 555.267944
27.78 555.143677
27.80 544.709534
27.82 540.380737
27.84 548.839355
27.86 549.794189
27.88 553.526611
27.90 552.737854
27.92 545.194824
27.94 539.884888
27.96 543.911255
27.98 541.834595
28.00 542.578308
28.02 547.189453
28.04 551.502808
28.06 547.279053
28.08 539.749207
28.10 546.256042
28.12 552.340637
28.14 551.487244
28.16 549.894897
28.18 544.531311
28.20 544.224304
28.22 546.313416
28.24 553.827026
28.26 555.195313
28.28 544.063904
28.30 544.352356
28.32 554.473022
28.34 547.641418
28.36 550.369324
28.38 544.72876
28.40 544.471252
28.42 543.040283
28.44 541.116943
28.46 537.244507
28.48 543.591919
28.50 547.552368
28.52 544.598816
28.54 539.337341
28.56 551.940369
28.58 547.623291
28.60 543.93988
28.62 545.283813
28.64 542.702087
28.66 531.645203
28.68 534.835022
28.70 534.568909
28.72 529.766357
28.74 540.427856
28.76 542.816284
28.78 541.73938
28.80 539.983337
28.82 543.11438
28.84 547.479431
28.86 536.369873
28.88 529.806763
28.90 543.460754
28.92 543.748352
28.94 546.518066
28.96 547.265259
28.98 543.95282
29.00 542.135254
29.02 538.707947
29.04 549.707153
29.06 546.172974
29.08 545.934631
29.10 545.358215
29.12 539.28656
29.14 542.48822
29.16 542.969421
29.18 539.239807
29.20 538.26709
29.22 533.601013
29.24 534.732666
29.26 532.825439
29.28 538.925232
29.30 548.671875
29.32 543.748291
29.34 539.184692
29.36 548.361511
29.38 552.00647
29.40 547.15625
29.42 542.419861
29.44 546.257202
29.46 551.23114
29.48 550.144836
29.50 555.642456
29.52 560.421753
29.54 562.067017
29.56 553.69519
29.58 552.544739
29.60 546.978088
29.62 544.017456
29.64 545.519653
29.66 550.19989
29.68 542.444336
29.70 538.539001
29.72 543.707458
29.74 547.927673
29.76 538.149048
29.78 542.111145
29.80 544.076782
29.82 533.70874
29.84 532.060486
29.86 530.004517
29.88 532.736389
29.90 539.026978
29.92 534.194946
29.94 526.060486
29.96 530.410095
29.98 533.41217
30.00 542.629333
30.02 533.669922
30.04 528.236694
30.06 523.167236
30.08 528.968262
30.10 533.862488
30.12 534.504395
30.14 526.745789
30.16 526.755432
30.18 524.068176
30.20 525.90155
30.22 527.789246
30.24 529.144348
30.26 538.087158
30.28 533.549072
30.30 525.647339
30.32 532.947754
30.34 529.508911
30.36 532.21228
30.38 538.363586
30.40 532.037781
30.42 530.814331
30.44 535.63269
30.46 540.639709
30.48 533.48291
30.50 527.844421
30.52 535.761963
30.54 539.990845
30.56 540.173462
30.58 535.329468
30.60 535.71228
30.62 531.263489
30.64 531.792908
30.66 533.083191
30.68 537.274719
30.70 542.078064
30.72 531.243652
30.74 543.039185
30.76 546.405762
30.78 550.971497
30.80 544.869995
30.82 544.650757
30.84 553.083069
30.86 557.87793
30.88 556.726501
30.90 554.191467
30.92 549.433289
30.94 567.063965
30.96 579.663513
30.98 587.624329
31.00 588.94574
31.02 604.25
31.04 622.137817
31.06 641.397034
31.08 651.540405
31.10 663.345276
31.12 671.697876
31.14 692.606689
31.16 711.957581
31.18 708.32428
31.20 715.754211
31.22 712.777222
31.24 699.657593
31.26 674.873779
31.28 667.265625
31.30 652.73999
31.32 638.249573
31.34 616.884521
31.36 600.843323
31.38 593.646301
31.40 577.413574
31.42 565.575134
31.44 560.462524
31.46 546.909241
31.48 539.26062
31.50 537.637939
31.52 528.932983
31.54 521.084534
31.56 524.80481
31.58 524.155273
31.60 519.84668
31.62 514.915344
31.64 507.436859
31.66 514.315063
31.68 519.196716
31.70 506.384216
31.72 502.364258
31.74 499.748871
31.76 498.638794
31.78 510.259338
31.80 507.026794
31.82 504.389038
31.84 497.926483
31.86 497.445953
31.88 490.922424
31.90 494.383331
31.92 491.351013
31.94 488.651215
31.96 489.425018
31.98 490.360352
32.00 493.460876
32.02 499.189789
32.04 495.920197
32.06 495.69101
32.08 496.891937
32.10 492.729462
32.12 488.897644
32.14 492.568329
32.16 490.187378
32.18 488.910217
32.20 478.020172
32.22 478.634735
32.24 483.01004
32.26 487.380585
32.28 493.891754
32.30 480.232544
32.32 483.153351
32.34 482.391327
32.36 482.267151
32.38 487.182434
32.40 483.016541
32.42 482.439941
32.44 477.910492
32.46 475.934967
32.48 477.630859
32.50 482.389648
32.52 482.538239
32.54 472.385193
32.56 465.300385
32.58 471.562897
32.60 472.041107
32.62 475.358185
32.64 481.656586
32.66 480.126343
32.68 475.159607
32.70 465.425446
32.72 472.943054
32.74 481.024567
32.76 478.519165
32.78 478.267822
32.80 472.953949
32.82 469.470642
32.84 467.964996
32.86 460.447296
32.88 461.397308
32.90 463.684723
32.92 462.997772
32.94 469.270294
32.96 468.355194
32.98 458.278839
33.00 459.297119
33.02 470.375549
33.04 471.844116
33.06 471.721649
33.08 468.721497
33.10 471.351685
33.12 467.478424
33.14 468.098389
33.16 465.757385
33.18 466.965179
33.20 461.588043
33.22 463.140564
33.24 465.201355
33.26 461.943665
33.28 469.282959
33.30 466.448486
33.32 464.760406
33.34 461.2771
33.36 454.746277
33.38 451.470398
33.40 456.084808
33.42 456.947998
33.44 460.833191
33.46 452.989655
33.48 453.108215
33.50 453.765991
33.52 453.565094
33.54 451.749237
33.56 446.648712
33.58 454.76712
33.60 453.193146
33.62 452.371368
33.64 458.756104
33.66 448.008575
33.68 447.172913
33.70 446.470062
33.72 447.673035
33.74 453.29892
33.76 450.924347
33.78 443.108246
33.80 443.82373
33.82 441.549347
33.84 440.447144
33.86 437.700775
33.88 437.426544
33.90 433.078522
33.92 438.699493
33.94 442.696808
33.96 444.522797
33.98 438.524414
34.00 439.24118
34.02 433.174744
34.04 428.123901
34.06 435.938324
34.08 438.991425
34.10 439.180573
34.12 446.466156
34.14 442.027802
34.16 435.414673
34.18 432.937042
34.20 421.688538
34.22 430.214508
34.24 430.076965
34.26 423.722687
34.28 434.074524
34.30 436.846008
34.32 440.960999
34.34 437.715027
34.36 439.806335
34.38 441.488983
34.40 442.921448
34.42 443.566956
34.44 437.85144
34.46 434.4935
34.48 432.196899
34.50 429.59082
34.52 437.525024
34.54 441.863739
34.56 439.51828
34.58 437.02301
34.60 443.072906
34.62 438.696899
34.64 449.216003
34.66 444.412598
34.68 445.723236
34.70 452.383179
34.72 453.197021
34.74 450.135071
34.76 450.709351
34.78 450.589447
34.80 454.481567
34.82 457.589172
34.84 454.984009
34.86 456.901001
34.88 462.426819
34.90 456.37027
34.92 453.288239
34.94 454.548706
34.96 456.501221
34.98 458.812683
35.00 454.65564
35.02 448.878143
35.04 455.694061
35.06 450.307587
35.08 441.059113
35.10 436.90152
35.12 441.710388
35.14 439.01474
35.16 432.097961
35.18 421.780365
35.20 417.797333
35.22 419.998138
35.24 421.163605
35.26 422.445465
35.28 414.865814
35.30 406.27655
35.32 406.238647
35.34 407.167694
35.36 405.155853
35.38 399.669159
35.40 392.957733
35.42 392.817169
35.44 395.484192
35.46 395.861359
35.48 391.811554
35.50 381.88678
35.52 380.565186
35.54 379.97052
35.56 384.697479
35.58 378.747833
35.60 375.359192
35.62 377.701202
35.64 373.691895
35.66 374.376923
35.68 373.359924
35.70 378.134094
35.72 374.534119
35.74 373.492035
35.76 371.937805
35.78 368.334747
35.80 368.189178
35.82 371.841339
35.84 371.590363
35.86 372.41568
35.88 370.482483
35.90 371.508789
35.92 363.570831
35.94 362.98584
35.96 360.579132
35.98 357.212585
36.00 360.537109
36.02 360.563477
36.04 363.341217
36.06 356.676941
36.08 353.199127
36.10 358.039612
36.12 360.482452
36.14 357.371277
36.16 365.118774
36.18 357.450012
36.20 353.590759
36.22 357.07782
36.24 350.369812
36.26 347.909393
36.28 349.702301
36.30 350.7789
36.32 351.024414
36.34 352.262238
36.36 353.250122
36.38 351.077606
36.40 353.927521
36.42 346.551544
36.44 339.088287
36.46 343.731537
36.48 351.658478
36.50 350.351715
36.52 342.335052
36.54 347.391846
36.56 344.096893
36.58 344.760925
36.60 345.434387
36.62 339.215027
36.64 346.865112
36.66 350.100739
36.68 354.086792
36.70 349.435486
36.72 340.694153
36.74 337.249756
36.76 339.262573
36.78 339.389648
36.80 337.299042
36.82 331.336182
36.84 330.261444
36.86 335.583588
36.88 333.950562
36.90 329.638428
36.92 327.746674
36.94 335.288452
36.96 336.884369
36.98 334.594269
37.00 330.09668
37.02 332.318054
37.04 329.940765
37.06 330.259155
37.08 332.267303
37.10 325.299316
37.12 323.552734
37.14 327.872589
37.16 324.813232
37.18 329.598816
37.20 326.300507
37.22 327.7789
37.24 324.953796
37.26 328.760986
37.28 328.078705
37.30 332.110077
37.32 327.792664
37.34 318.638458
37.36 320.048431
37.38 321.737946
37.40 320.048828
37.42 326.497162
37.44 327.860199
37.46 327.060516
37.48 325.702484
37.50 317.530029
37.52 324.505829
37.54 325.803741
37.56 321.835175
37.58 318.834167
37.60 320.786407
37.62 318.580963
37.64 318.479828
37.66 316.861237
37.68 311.75119
37.70 312.274048
37.72 318.844757
37.74 319.868774
37.76 317.211365
37.78 321.050751
37.80 319.816315
37.82 312.685547
37.84 321.85434
37.86 322.620422
37.88 320.769592
37.90 319.29425
37.92 321.034821
37.94 321.550354
37.96 322.299957
37.98 318.286652
38.00 318.749298
38.02 316.880707
38.04 317.552155
38.06 322.710999
38.08 321.773041
38.10 320.250153
38.12 322.721741
38.14 319.619873
38.16 319.632233
38.18 321.13974
38.20 320.343781
38.22 320.393066
38.24 322.12381
38.26 312.015259
38.28 315.190521
38.30 319.609131
38.32 316.668579
38.34 316.547638
38.36 327.422394
38.38 328.224731
38.40 315.008545
38.42 318.514954
38.44 317.532745
38.46 314.0578
38.48 316.807587
38.50 313.52951
38.52 312.75705
38.54 314.576447
38.56 313.220154
38.58 313.098663
38.60 307.374115
38.62 312.173157
38.64 306.353088
38.66 300.969696
38.68 303.750854
38.70 313.019287
38.72 304.380676
38.74 299.237335
38.76 296.577209
38.78 294.548584
38.80 300.62912
38.82 302.47641
38.84 300.096527
38.86 299.575928
38.88 300.65799
38.90 304.089783
38.92 296.541931
38.94 294.026489
38.96 292.638702
38.98 285.057983
39.00 290.420898
39.02 298.97995
39.04 295.797913
39.06 295.954742
39.08 294.604584
39.10 295.237732
39.12 293.73642
39.14 291.186462
39.16 286.217316
39.18 283.159821
39.20 284.851135
39.22 290.053009
39.24 287.534424
39.26 283.959229
39.28 282.251953
39.30 289.069489
39.32 292.392792
39.34 289.126007
39.36 291.120056
39.38 291.375122
39.40 292.892151
39.42 290.456879
39.44 286.026886
39.46 287.800201
39.48 293.434326
39.50 286.465485
39.52 277.979279
39.54 277.768921
39.56 285.195313
39.58 284.016602
39.60 278.881256
39.62 281.093689
39.64 281.550293
39.66 280.113251
39.68 276.147217
39.70 277.635956
39.72 284.724823
39.74 286.086395
39.76 283.415649
39.78 280.535095
39.80 281.271759
39.82 276.627625
39.84 276.661072
39.86 274.092804
39.88 271.153351
39.90 272.908966
39.92 279.501709
39.94 279.465546
39.96 274.128937
39.98 275.376129
40.00 280.858734
