!@!!GADDS PLOTSO FILE: Chi integration type
!@!!Title/SampleName: ML_MAPbX3
!@!!User: NREL
!@!!Site: NREL SERF C211; SN 2510
!@!!Frame: 081022_MLProject_000_017.gfrm
!@!!Wavelengths    1.54184   1.54056   1.54439
!@!!Frame angles: 2Theta: 28.000 Omega: 5.000 Phi: 0.000 Chi: 90.000
!@!!Integration range: 2Theta: 10.000 to 40.000  Gamma: -135.000 to -110.000
!@!!Integration method: bin normalized
!@!N
!@!SS
!@!M
!@!L 0.0 0.0 0.0 0.0
!@!XDegrees
!@!YCounts
10.00 124.049187
10.02 131.331711
10.04 132.336014
10.06 138.939468
10.08 126.916161
10.10 131.401688
10.12 125.384239
10.14 125.303909
10.16 133.096817
10.18 123.668556
10.20 124.163864
10.22 141.798492
10.24 126.464264
10.26 140.889618
10.28 143.881699
10.30 151.069824
10.32 146.539734
10.34 134.865387
10.36 138.67128
10.38 150.545471
10.40 143.662018
10.42 148.038986
10.44 144.039291
10.46 153.47966
10.48 158.917999
10.50 167.671783
10.52 154.461777
10.54 158.653793
10.56 157.637299
10.58 176.652222
10.60 159.625473
10.62 159.221588
10.64 159.052322
10.66 149.523071
10.68 155.545242
10.70 166.082153
10.72 162.285675
10.74 154.235321
10.76 154.044495
10.78 162.013931
10.80 163.222046
10.82 161.481293
10.84 165.449249
10.86 164.986053
10.88 163.557709
10.90 162.573471
10.92 153.574371
10.94 167.679794
10.96 163.703827
10.98 161.884247
11.00 162.102936
11.02 176.478973
11.04 174.232101
11.06 165.814026
11.08 160.581085
11.10 182.200882
11.12 174.454849
11.14 167.910858
11.16 169.525757
11.18 183.354034
11.20 176.128235
11.22 175.167419
11.24 174.004623
11.26 175.440735
11.28 173.738113
11.30 170.520401
11.32 171.015533
11.34 158.377823
11.36 174.358276
11.38 178.993469
11.40 181.430222
11.42 183.576294
11.44 189.141495
11.46 192.218964
11.48 178.210251
11.50 172.500732
11.52 173.525284
11.54 172.993622
11.56 189.351791
11.58 194.485672
11.60 185.93898
11.62 186.245514
11.64 198.546387
11.66 206.232742
11.68 213.082428
11.70 203.955826
11.72 190.800613
11.74 182.459457
11.76 197.443115
11.78 183.586639
11.80 187.248779
11.82 196.555634
11.84 194.194183
11.86 179.268906
11.88 181.650925
11.90 189.857269
11.92 189.82341
11.94 190.987122
11.96 187.729919
11.98 194.800842
12.00 197.725311
12.02 203.884399
12.04 204.86676
12.06 208.808807
12.08 196.851089
12.10 192.177628
12.12 206.146393
12.14 215.352341
12.16 223.513977
12.18 223.079117
12.20 210.761719
12.22 212.489014
12.24 227.383652
12.26 221.261948
12.28 205.113815
12.30 206.688202
12.32 217.764221
12.34 223.828445
12.36 220.834106
12.38 219.809036
12.40 213.747223
12.42 195.267822
12.44 207.823074
12.46 235.340668
12.48 227.375641
12.50 224.205887
12.52 235.89296
12.54 232.404694
12.56 214.333786
12.58 218.54451
12.60 223.888962
12.62 222.950745
12.64 224.431717
12.66 223.044464
12.68 214.524216
12.70 226.713318
12.72 227.597397
12.74 216.154984
12.76 239.294724
12.78 234.380981
12.80 228.37088
12.82 238.442459
12.84 230.802322
12.86 223.516205
12.88 231.957657
12.90 233.217697
12.92 233.080353
12.94 234.908035
12.96 224.614212
12.98 223.2565
13.00 230.652359
13.02 233.544052
13.04 217.516708
13.06 236.08783
13.08 224.195999
13.10 211.23967
13.12 236.005997
13.14 223.293777
13.16 227.381149
13.18 232.124008
13.20 226.479874
13.22 221.636276
13.24 226.643616
13.26 229.194534
13.28 219.35054
13.30 209.76236
13.32 227.111801
13.34 224.02504
13.36 245.976685
13.38 237.166473
13.40 218.758743
13.42 214.965149
13.44 211.901169
13.46 227.453552
13.48 225.686417
13.50 215.685074
13.52 233.230194
13.54 236.960953
13.56 228.916122
13.58 236.885056
13.60 248.011597
13.62 228.432693
13.64 228.81601
13.66 227.213104
13.68 236.898865
13.70 247.820801
13.72 254.75325
13.74 258.749146
13.76 248.118378
13.78 245.262665
13.80 247.489807
13.82 244.66777
13.84 253.969345
13.86 250.269577
13.88 247.357788
13.90 250.767227
13.92 260.643005
13.94 263.775299
13.96 261.86499
13.98 267.821228
14.00 266.332458
14.02 261.594269
14.04 263.060608
14.06 266.040466
14.08 252.626053
14.10 255.901657
14.12 256.35083
14.14 264.408356
14.16 271.843933
14.18 273.341583
14.20 272.533539
14.22 278.957886
14.24 273.464264
14.26 272.833099
14.28 276.445374
14.30 278.758331
14.32 277.830017
14.34 274.47345
14.36 270.71756
14.38 278.748932
14.40 284.567993
14.42 275.130066
14.44 260.408752
14.46 274.456696
14.48 268.020874
14.50 265.897339
14.52 282.328949
14.54 267.663361
14.56 270.650787
14.58 266.539703
14.60 274.503082
14.62 266.493408
14.64 274.0224
14.66 270.203705
14.68 262.362
14.70 256.517517
14.72 275.29126
14.74 273.370483
14.76 269.885071
14.78 285.867157
14.80 279.892853
14.82 284.456726
14.84 280.208862
14.86 280.045013
14.88 287.543152
14.90 280.217651
14.92 276.79718
14.94 275.566284
14.96 274.061859
14.98 272.401093
15.00 271.516418
15.02 252.97438
15.04 267.135132
15.06 285.766174
15.08 275.928345
15.10 267.221588
15.12 275.667664
15.14 271.945679
15.16 278.701599
15.18 276.076447
15.20 274.510895
15.22 280.249176
15.24 279.331604
15.26 249.383286
15.28 244.554749
15.30 264.303192
15.32 283.534668
15.34 271.176178
15.36 274.285309
15.38 273.807037
15.40 280.620758
15.42 282.854614
15.44 287.90213
15.46 283.052124
15.48 271.051025
15.50 272.677277
15.52 272.203186
15.54 277.462921
15.56 283.675018
15.58 279.859344
15.60 266.265228
15.62 266.536041
15.64 273.538513
15.66 275.743073
15.68 282.018799
15.70 289.112701
15.72 287.681885
15.74 284.436371
15.76 289.760376
15.78 282.13205
15.80 286.149078
15.82 281.969635
15.84 288.382141
15.86 292.185883
15.88 299.772858
15.90 290.075195
15.92 290.097748
15.94 285.623627
15.96 281.491119
15.98 278.845245
16.00 273.424286
16.02 293.795166
16.04 303.119965
16.06 300.5896
16.08 275.884308
16.10 282.737305
16.12 290.028503
16.14 281.334045
16.16 283.29599
16.18 284.794434
16.20 298.119659
16.22 300.117889
16.24 289.865204
16.26 279.274597
16.28 294.525269
16.30 294.159088
16.32 288.134186
16.34 292.579468
16.36 296.144684
16.38 292.831268
16.40 283.398682
16.42 296.696991
16.44 290.070251
16.46 275.339935
16.48 273.033691
16.50 283.61792
16.52 287.254913
16.54 293.136597
16.56 293.611176
16.58 286.185089
16.60 286.791351
16.62 291.701874
16.64 302.539886
16.66 305.325745
16.68 299.595062
16.70 308.517792
16.72 304.761597
16.74 299.766357
16.76 303.96051
16.78 303.122498
16.80 300.85556
16.82 296.599609
16.84 306.265503
16.86 315.896423
16.88 298.201324
16.90 296.558929
16.92 309.039154
16.94 317.803619
16.96 316.573975
16.98 314.849487
17.00 303.83725
17.02 308.223389
17.04 310.53656
17.06 309.714691
17.08 322.325775
17.10 316.016785
17.12 313.131775
17.14 322.442627
17.16 320.924683
17.18 306.959717
17.20 307.925385
17.22 326.757843
17.24 322.962891
17.26 325.832245
17.28 320.780121
17.30 315.071594
17.32 327.119171
17.34 335.221222
17.36 323.61908
17.38 317.421478
17.40 300.671692
17.42 302.424988
17.44 332.095367
17.46 345.24115
17.48 330.926941
17.50 328.157532
17.52 329.681152
17.54 324.044006
17.56 338.12973
17.58 322.14032
17.60 320.223114
17.62 320.512238
17.64 340.134888
17.66 345.015259
17.68 346.506104
17.70 331.314819
17.72 329.136414
17.74 335.733673
17.76 332.324585
17.78 333.641479
17.80 343.657684
17.82 345.0979
17.84 342.835785
17.86 333.053284
17.88 334.496185
17.90 323.153809
17.92 323.083466
17.94 338.726776
17.96 349.397522
17.98 336.652069
18.00 330.699799
18.02 333.422424
18.04 338.743134
18.06 354.11264
18.08 349.535004
18.10 358.505707
18.12 351.166962
18.14 337.487152
18.16 355.006073
18.18 354.950165
18.20 350.265625
18.22 353.224518
18.24 348.402679
18.26 346.144501
18.28 351.3797
18.30 365.294708
18.32 353.925049
18.34 351.940247
18.36 352.210358
18.38 365.233826
18.40 356.598511
18.42 365.481018
18.44 366.276306
18.46 351.273834
18.48 354.815826
18.50 345.265961
18.52 338.25174
18.54 361.412323
18.56 356.161957
18.58 360.253571
18.60 371.537262
18.62 364.873138
18.64 368.150055
18.66 355.527466
18.68 359.619965
18.70 369.161743
18.72 364.375641
18.74 353.77002
18.76 372.340607
18.78 367.780762
18.80 377.792267
18.82 372.989288
18.84 371.230438
18.86 369.010864
18.88 371.396606
18.90 380.504059
18.92 380.558197
18.94 371.316132
18.96 382.491791
18.98 396.079285
19.00 379.14093
19.02 382.681458
19.04 374.286377
19.06 364.194061
19.08 376.056061
19.10 376.768585
19.12 377.485474
19.14 372.806122
19.16 360.841064
19.18 376.43634
19.20 398.344086
19.22 388.401215
19.24 398.560089
19.26 383.513702
19.28 380.206573
19.30 380.960236
19.32 382.039398
19.34 375.940552
19.36 395.576294
19.38 400.438019
19.40 388.819489
19.42 384.975006
19.44 392.539276
19.46 398.247955
19.48 402.38089
19.50 387.358337
19.52 385.66095
19.54 386.326233
19.56 367.550781
19.58 385.691132
19.60 397.230621
19.62 389.507935
19.64 399.533661
19.66 401.950317
19.68 400.615448
19.70 398.186096
19.72 398.124176
19.74 404.193207
19.76 413.987152
19.78 414.764893
19.80 402.205261
19.82 397.862457
19.84 406.72583
19.86 429.181824
19.88 414.27179
19.90 408.696259
19.92 406.733398
19.94 417.972748
19.96 418.487366
19.98 427.534302
20.00 411.465973
20.02 410.220734
20.04 415.233948
20.06 405.128235
20.08 418.870361
20.10 425.478088
20.12 426.549805
20.14 439.925751
20.16 438.809601
20.18 452.997223
20.20 452.680054
20.22 440.58844
20.24 444.77359
20.26 441.725006
20.28 436.510132
20.30 433.459015
20.32 448.564697
20.34 434.13327
20.36 423.955811
20.38 433.714966
20.40 441.596619
20.42 432.135071
20.44 447.47699
20.46 441.531403
20.48 432.138977
20.50 445.071259
20.52 449.971924
20.54 453.97583
20.56 451.686157
20.58 440.544861
20.60 438.063812
20.62 432.261993
20.64 443.411652
20.66 452.748016
20.68 454.250916
20.70 445.060913
20.72 440.139709
20.74 456.830719
20.76 442.363495
20.78 426.38504
20.80 466.296997
20.82 475.11673
20.84 467.881927
20.86 454.349396
20.88 454.358704
20.90 437.249847
20.92 446.08963
20.94 454.68515
20.96 468.896027
20.98 457.498993
21.00 458.834198
21.02 475.934113
21.04 476.078247
21.06 474.402405
21.08 479.122131
21.10 463.598511
21.12 460.132172
21.14 475.044586
21.16 486.020813
21.18 468.925446
21.20 452.457672
21.22 455.585846
21.24 478.274292
21.26 494.903107
21.28 484.053162
21.30 482.300781
21.32 493.285706
21.34 493.920105
21.36 489.33316
21.38 473.106781
21.40 473.312744
21.42 485.807251
21.44 498.703369
21.46 477.491577
21.48 480.634918
21.50 501.344849
21.52 499.762177
21.54 487.290619
21.56 497.852753
21.58 481.659637
21.60 470.97821
21.62 467.794189
21.64 483.286407
21.66 500.926544
21.68 499.525024
21.70 492.088257
21.72 478.607666
21.74 482.847992
21.76 501.679291
21.78 496.167694
21.80 488.684113
21.82 494.72229
21.84 509.527069
21.86 510.178101
21.88 498.133575
21.90 498.847656
21.92 493.291351
21.94 503.451843
21.96 499.810852
21.98 511.163971
22.00 513.761719
22.02 503.461456
22.04 506.381287
22.06 502.415833
22.08 510.280334
22.10 492.096802
22.12 496.722229
22.14 501.002655
22.16 488.160583
22.18 490.898132
22.20 518.122803
22.22 511.706024
22.24 499.832764
22.26 492.007111
22.28 510.696289
22.30 514.98822
22.32 494.614075
22.34 486.3974
22.36 499.09317
22.38 517.33313
22.40 509.280365
22.42 514.755493
22.44 526.941223
22.46 530.072937
22.48 524.62439
22.50 519.716064
22.52 519.774536
22.54 520.241211
22.56 501.790863
22.58 498.430634
22.60 510.718536
22.62 531.117065
22.64 538.577881
22.66 534.468018
22.68 545.57196
22.70 541.966492
22.72 531.235901
22.74 519.046753
22.76 529.269714
22.78 526.844055
22.80 513.934021
22.82 528.617188
22.84 527.036377
22.86 531.934265
22.88 534.722534
22.90 517.672363
22.92 524.236572
22.94 504.741364
22.96 512.411377
22.98 534.986267
23.00 529.993774
23.02 520.405212
23.04 532.708008
23.06 543.836243
23.08 547.21936
23.10 537.796143
23.12 533.921265
23.14 537.83551
23.16 532.749084
23.18 534.06958
23.20 536.403809
23.22 539.135925
23.24 544.244995
23.26 540.811829
23.28 519.780945
23.30 535.267822
23.32 553.420471
23.34 541.342651
23.36 524.776611
23.38 521.702271
23.40 533.505066
23.42 536.036804
23.44 549.461853
23.46 555.880371
23.48 534.842712
23.50 534.926575
23.52 547.650024
23.54 547.800415
23.56 558.046387
23.58 557.795776
23.60 562.658813
23.62 560.28894
23.64 548.467712
23.66 551.686523
23.68 554.410278
23.70 560.495361
23.72 559.312561
23.74 566.3526
23.76 551.854614
23.78 547.148621
23.80 544.587952
23.82 553.14093
23.84 544.606873
23.86 549.143433
23.88 567.729065
23.90 557.055664
23.92 541.083923
23.94 541.495667
23.96 539.880127
23.98 542.41626
24.00 547.536438
24.02 546.563049
24.04 549.78009
24.06 550.576721
24.08 549.304199
24.10 554.506653
24.12 541.816833
24.14 540.835388
24.16 550.459351
24.18 538.228821
24.20 521.622009
24.22 542.092957
24.24 546.678894
24.26 551.940552
24.28 561.788879
24.30 563.85614
24.32 560.055359
24.34 567.469421
24.36 565.065369
24.38 568.336975
24.40 562.430786
24.42 563.684448
24.44 552.708496
24.46 553.232605
24.48 566.847473
24.50 565.852539
24.52 560.281189
24.54 568.951843
24.56 577.214172
24.58 581.815308
24.60 581.380188
24.62 574.302368
24.64 576.081055
24.66 566.689575
24.68 554.111572
24.70 542.867065
24.72 541.167847
24.74 570.222595
24.76 570.332581
24.78 567.231445
24.80 558.817139
24.82 553.747986
24.84 553.907776
24.86 561.21582
24.88 567.688904
24.90 563.65802
24.92 567.243652
24.94 570.52301
24.96 560.122681
24.98 554.00885
25.00 553.917664
25.02 573.234314
25.04 581.624756
25.06 575.696838
25.08 559.887146
25.10 548.35376
25.12 565.659973
25.14 575.57782
25.16 568.234558
25.18 564.613525
25.20 569.860779
25.22 570.956238
25.24 573.626892
25.26 568.118713
25.28 564.299561
25.30 576.404602
25.32 569.986633
25.34 572.392822
25.36 585.834778
25.38 576.416016
25.40 568.832581
25.42 554.018066
25.44 549.675049
25.46 564.786316
25.48 577.820251
25.50 573.182495
25.52 580.094543
25.54 576.042358
25.56 566.785889
25.58 580.991516
25.60 589.612
25.62 577.635376
25.64 572.964417
25.66 575.849182
25.68 583.453979
25.70 585.826599
25.72 575.764343
25.74 561.831482
25.76 581.14978
25.78 587.909485
25.80 576.33783
25.82 561.266357
25.84 557.909851
25.86 571.073486
25.88 570.005188
25.90 576.773682
25.92 578.145752
25.94 560.803162
25.96 565.25769
25.98 577.893311
26.00 581.818298
26.02 566.473328
26.04 579.415222
26.06 594.247253
26.08 585.429199
26.10 578.693542
26.12 581.23822
26.14 585.120178
26.16 581.848999
26.18 571.000427
26.20 584.629272
26.22 582.675415
26.24 577.317871
26.26 587.206421
26.28 576.589355
26.30 575.343506
26.32 553.959045
26.34 553.177795
26.36 554.533325
26.38 566.5271
26.40 558.814758
26.42 569.130493
26.44 568.593323
26.46 575.897827
26.48 581.109253
26.50 574.675659
26.52 558.236816
26.54 547.730103
26.56 536.719421
26.58 574.923096
26.60 560.060669
26.62 546.745361
26.64 571.314575
26.66 568.52948
26.68 560.012024
26.70 559.243835
26.72 554.431458
26.74 559.263367
26.76 552.772217
26.78 550.039246
26.80 542.725037
26.82 540.340637
26.84 559.239929
26.86 563.568298
26.88 564.253113
26.90 557.843933
26.92 565.780701
26.94 561.248169
26.96 574.355896
26.98 565.090271
27.00 564.631775
27.02 560.580994
27.04 561.140991
27.06 559.209229
27.08 567.203552
27.10 571.969666
27.12 562.236572
27.14 552.360779
27.16 554.517578
27.18 548.506653
27.20 549.372803
27.22 550.320618
27.24 568.097412
27.26 559.217529
27.28 549.987427
27.30 549.233521
27.32 548.229126
27.34 564.381958
27.36 566.919312
27.38 557.056824
27.40 552.850708
27.42 555.637939
27.44 550.556763
27.46 564.197266
27.48 570.826294
27.50 559.153687
27.52 582.697021
27.54 574.436401
27.56 569.122742
27.58 549.737366
27.60 547.577271
27.62 555.884521
27.64 566.264648
27.66 559.010986
27.68 562.777161
27.70 562.641357
27.72 559.284485
27.74 542.945068
27.76 540.085876
27.78 553.062256
27.80 569.133057
27.82 560.084412
27.84 544.226257
27.86 538.418457
27.88 551.525818
27.90 556.259766
27.92 559.445984
27.94 564.142822
27.96 563.012878
27.98 562.223755
28.00 574.549011
28.02 558.941162
28.04 553.127441
28.06 570.512573
28.08 559.434631
28.10 548.421387
28.12 566.130127
28.14 556.436279
28.16 566.506531
28.18 568.657104
28.20 561.013672
28.22 555.221741
28.24 564.474854
28.26 557.674194
28.28 567.564331
28.30 574.876648
28.32 566.779968
28.34 552.530334
28.36 553.84552
28.38 558.447937
28.40 560.499451
28.42 564.528931
28.44 561.562744
28.46 560.418701
28.48 562.467285
28.50 559.36853
28.52 553.45636
28.54 557.547119
28.56 571.519836
28.58 558.276428
28.60 556.85968
28.62 562.786255
28.64 566.757446
28.66 580.977844
28.68 588.716675
28.70 579.304443
28.72 560.099243
28.74 555.562134
28.76 561.263123
28.78 557.469421
28.80 562.610352
28.82 566.453735
28.84 561.372437
28.86 551.11499
28.88 544.879089
28.90 568.034424
28.92 581.00592
28.94 568.958496
28.96 553.477173
28.98 560.280396
29.00 559.479553
29.02 556.71814
29.04 544.022888
29.06 551.873291
29.08 557.307739
29.10 573.292725
29.12 560.450256
29.14 552.12793
29.16 548.178467
29.18 529.330261
29.20 530.162354
29.22 547.503174
29.24 555.715393
29.26 557.429688
29.28 546.736145
29.30 543.194153
29.32 537.649231
29.34 530.942078
29.36 533.985901
29.38 541.885803
29.40 535.798523
29.42 524.481262
29.44 524.875488
29.46 540.714417
29.48 535.556641
29.50 527.251038
29.52 541.092712
29.54 539.483093
29.56 544.886597
29.58 538.432434
29.60 540.586792
29.62 541.386292
29.64 535.852234
29.66 523.535095
29.68 521.295349
29.70 513.954834
29.72 514.319336
29.74 516.299988
29.76 531.290466
29.78 518.806885
29.80 518.193726
29.82 529.979309
29.84 527.126038
29.86 532.63501
29.88 529.560974
29.90 526.603821
29.92 529.192627
29.94 512.586304
29.96 521.643494
29.98 534.145386
30.00 517.632996
30.02 514.751648
30.04 510.773254
30.06 510.788177
30.08 515.465088
30.10 514.280884
30.12 512.490173
30.14 517.9151
30.16 515.175293
30.18 510.63913
30.20 516.005798
30.22 524.776001
30.24 526.199951
30.26 514.263245
30.28 516.229126
30.30 509.79837
30.32 509.724304
30.34 521.96875
30.36 518.675781
30.38 502.507263
30.40 508.623413
30.42 506.027771
30.44 508.391449
30.46 508.310303
30.48 497.113098
30.50 492.114258
30.52 503.367035
30.54 506.978119
30.56 509.734619
30.58 508.858551
30.60 508.14447
30.62 514.094299
30.64 512.909729
30.66 505.854675
30.68 495.93866
30.70 502.462128
30.72 483.1073
30.74 481.732941
30.76 487.215729
30.78 490.940521
30.80 489.417084
30.82 494.839539
30.84 491.884338
30.86 479.599396
30.88 486.617554
30.90 492.554565
30.92 496.466919
30.94 489.197174
30.96 498.237518
30.98 488.964661
31.00 495.130371
31.02 499.805084
31.04 498.428772
31.06 489.932678
31.08 483.810028
31.10 488.078278
31.12 487.12912
31.14 481.491394
31.16 480.073608
31.18 470.774628
31.20 473.024292
31.22 480.013184
31.24 476.440552
31.26 472.930023
31.28 464.36676
31.30 463.632782
31.32 471.061707
31.34 475.286987
31.36 471.120483
31.38 485.375305
31.40 471.093231
31.42 473.392426
31.44 470.689423
31.46 476.429535
31.48 472.246246
31.50 470.845154
31.52 474.589233
31.54 474.306305
31.56 479.07959
31.58 479.066437
31.60 457.285339
31.62 454.338501
31.64 468.515686
31.66 470.544586
31.68 472.784393
31.70 474.836121
31.72 457.725464
31.74 462.478729
31.76 465.687378
31.78 452.191498
31.80 464.06546
31.82 470.682617
31.84 474.710388
31.86 481.001923
31.88 471.69577
31.90 470.832672
31.92 465.451904
31.94 466.572662
31.96 456.307648
31.98 465.924988
32.00 480.763123
32.02 464.89624
32.04 455.610443
32.06 477.960876
32.08 480.856903
32.10 498.036011
32.12 495.963348
32.14 480.619934
32.16 478.404663
32.18 484.763397
32.20 480.62326
32.22 470.857147
32.24 475.808716
32.26 496.030334
32.28 493.871002
32.30 497.182739
32.32 494.11676
32.34 488.989838
32.36 492.776794
32.38 493.168274
32.40 482.703491
32.42 471.651886
32.44 482.164001
32.46 499.162872
32.48 496.776031
32.50 490.611328
32.52 477.727203
32.54 482.333618
32.56 483.753143
32.58 473.605988
32.60 472.032776
32.62 474.229919
32.64 475.576111
32.66 468.758026
32.68 469.636902
32.70 474.124817
32.72 467.342529
32.74 454.529022
32.76 448.881897
32.78 453.911194
32.80 460.300232
32.82 474.612671
32.84 467.811401
32.86 463.442352
32.88 452.297943
32.90 458.325592
32.92 469.047058
32.94 447.761017
32.96 433.376526
32.98 440.696106
33.00 451.075348
33.02 458.605591
33.04 468.97818
33.06 460.792877
33.08 437.30014
33.10 438.960846
33.12 451.905853
33.14 443.216888
33.16 445.349609
33.18 442.834045
33.20 437.003448
33.22 457.902496
33.24 460.409607
33.26 427.787506
33.28 428.372314
33.30 433.745697
33.32 428.119263
33.34 433.54068
33.36 445.815125
33.38 449.139832
33.40 445.29364
33.42 442.945709
33.44 451.364136
33.46 446.207886
33.48 442.58136
33.50 444.597504
33.52 443.123444
33.54 435.010071
33.56 439.701111
33.58 441.039246
33.60 438.594788
33.62 430.950531
33.64 420.995422
33.66 422.233826
33.68 419.853027
33.70 427.696503
33.72 434.836945
33.74 433.573669
33.76 440.560242
33.78 438.429932
33.80 425.170044
33.82 425.816101
33.84 439.380768
33.86 437.202698
33.88 432.422577
33.90 428.373077
33.92 430.53775
33.94 446.107849
33.96 442.194031
33.98 442.801483
34.00 434.453491
34.02 420.456909
34.04 413.480865
34.06 412.134644
34.08 434.856598
34.10 444.786804
34.12 441.194275
34.14 444.494385
34.16 438.656464
34.18 432.01828
34.20 433.527435
34.22 450.582458
34.24 431.844574
34.26 441.149475
34.28 457.785187
34.30 454.489624
34.32 444.509674
34.34 438.406555
34.36 445.618225
34.38 438.759003
34.40 442.060883
34.42 440.483734
34.44 435.951782
34.46 442.450928
34.48 444.562775
34.50 424.470184
34.52 441.289703
34.54 451.047485
34.56 446.331604
34.58 429.496826
34.60 423.935516
34.62 432.960419
34.64 442.111481
34.66 430.787201
34.68 430.152649
34.70 429.660126
34.72 426.355591
34.74 430.326233
34.76 430.909027
34.78 433.103241
34.80 410.536865
34.82 415.065521
34.84 428.764099
34.86 424.051849
34.88 414.725891
34.90 409.609253
34.92 398.059021
34.94 380.833069
34.96 407.36972
34.98 415.820526
35.00 421.403961
35.02 384.733612
35.04 383.368896
35.06 402.917542
35.08 402.336792
35.10 398.436768
35.12 387.495331
35.14 401.303864
35.16 391.002228
35.18 392.104401
35.20 401.389648
35.22 391.215027
35.24 389.752991
35.26 394.950684
35.28 399.844971
35.30 401.774933
35.32 394.861267
35.34 380.289154
35.36 366.152527
35.38 386.435333
35.40 393.564606
35.42 400.137482
35.44 396.053925
35.46 394.798401
35.48 387.711609
35.50 386.468018
35.52 381.852844
35.54 375.810333
35.56 380.327057
35.58 390.889923
35.60 382.801392
35.62 371.941132
35.64 374.246643
35.66 377.566956
35.68 381.687836
35.70 387.980621
35.72 396.673065
35.74 378.816742
35.76 390.919098
35.78 396.936157
35.80 372.442841
35.82 363.813019
35.84 374.061523
35.86 374.223785
35.88 365.704285
35.90 365.573914
35.92 369.184082
35.94 361.62796
35.96 354.611298
35.98 360.986084
36.00 370.403381
36.02 381.142151
36.04 368.685425
36.06 378.866821
36.08 363.759888
36.10 350.534973
36.12 362.222382
36.14 358.836609
36.16 362.321259
36.18 357.581146
36.20 355.617157
36.22 368.557526
36.24 373.138855
36.26 358.92627
36.28 353.636597
36.30 354.520935
36.32 351.275238
36.34 354.441467
36.36 359.41806
36.38 358.98233
36.40 357.966248
36.42 357.73111
36.44 353.333252
36.46 355.238647
36.48 345.030121
36.50 351.192749
36.52 353.950073
36.54 344.769867
36.56 339.953857
36.58 340.999634
36.60 340.027771
36.62 336.248627
36.64 337.331329
36.66 342.466705
36.68 355.53714
36.70 349.322388
36.72 337.053192
36.74 342.068665
36.76 344.357208
36.78 352.668091
36.80 343.091888
36.82 346.250854
36.84 356.357361
36.86 353.361115
36.88 344.878204
36.90 357.223846
36.92 349.531189
36.94 330.563019
36.96 336.815704
36.98 335.552338
37.00 328.217926
37.02 341.108276
37.04 334.750671
37.06 340.315338
37.08 348.314636
37.10 343.183777
37.12 350.589935
37.14 356.362701
37.16 346.739166
37.18 352.51358
37.20 353.413116
37.22 344.283051
37.24 333.163483
37.26 331.457977
37.28 339.517578
37.30 337.799927
37.32 335.489532
37.34 327.017151
37.36 319.454224
37.38 334.584808
37.40 328.032837
37.42 321.126617
37.44 324.991272
37.46 329.143463
37.48 333.603516
37.50 331.584778
37.52 329.960785
37.54 326.005371
37.56 334.220947
37.58 336.447754
37.60 338.327332
37.62 333.401489
37.64 329.39502
37.66 329.257965
37.68 334.433197
37.70 329.19043
37.72 322.844788
37.74 330.655121
37.76 344.041931
37.78 335.960266
37.80 344.928925
37.82 334.07785
37.84 329.01416
37.86 336.560425
37.88 328.936737
37.90 307.034607
37.92 321.802795
37.94 349.056061
37.96 343.798309
37.98 326.40921
38.00 323.040924
38.02 320.53064
38.04 318.468872
38.06 321.075958
38.08 321.108612
38.10 323.644135
38.12 322.076294
38.14 327.246613
38.16 321.4534
38.18 319.005737
38.20 325.439178
38.22 323.879852
38.24 320.662811
38.26 322.861359
38.28 316.737854
38.30 311.807892
38.32 320.763184
38.34 309.915894
38.36 319.971375
38.38 318.527832
38.40 310.211517
38.42 305.16037
38.44 317.307648
38.46 320.622253
38.48 309.383789
38.50 304.698578
38.52 314.419495
38.54 322.718414
38.56 317.447693
38.58 323.161987
38.60 311.809021
38.62 305.736542
38.64 303.898804
38.66 307.176819
38.68 315.013977
38.70 319.134827
38.72 314.78772
38.74 308.696045
38.76 312.425995
38.78 314.112335
38.80 315.253479
38.82 309.296295
38.84 299.271118
38.86 300.143311
38.88 302.72699
38.90 315.302216
38.92 320.428528
38.94 300.708923
38.96 286.007263
38.98 290.027374
39.00 293.478058
39.02 295.77951
39.04 305.648224
39.06 300.249237
39.08 304.991669
39.10 295.929688
39.12 300.917633
39.14 307.011444
39.16 299.385956
39.18 301.397034
39.20 296.837738
39.22 303.032654
39.24 293.554321
39.26 295.869446
39.28 294.681519
39.30 300.419891
39.32 299.624817
39.34 298.245178
39.36 285.655792
39.38 298.066895
39.40 307.621735
39.42 299.095276
39.44 294.922699
39.46 297.678864
39.48 288.587219
39.50 282.055969
39.52 280.162781
39.54 276.919739
39.56 282.963074
39.58 286.085358
39.60 283.542267
39.62 287.088135
39.64 292.619324
39.66 288.465393
39.68 285.367767
39.70 274.789276
39.72 269.79483
39.74 277.190674
39.76 268.798065
39.78 263.232697
39.80 274.763916
39.82 265.282898
39.84 260.05072
39.86 269.391052
39.88 269.957764
39.90 279.471222
39.92 290.910339
39.94 277.520233
39.96 269.2659
39.98 267.31012
40.00 273.370605
