!@!!GADDS PLOTSO FILE: Chi integration type
!@!!Title/SampleName: ML_MAPbX3
!@!!User: NREL
!@!!Site: NREL SERF C211; SN 2510
!@!!Frame: 081022_MLProject_000_012.gfrm
!@!!Wavelengths    1.54184   1.54056   1.54439
!@!!Frame angles: 2Theta: 28.000 Omega: 5.000 Phi: 0.000 Chi: 90.000
!@!!Integration range: 2Theta: 10.000 to 40.000  Gamma: -135.000 to -110.000
!@!!Integration method: bin normalized
!@!N
!@!SS
!@!M
!@!L 0.0 0.0 0.0 0.0
!@!XDegrees
!@!YCounts
10.00 171.790863
10.02 163.690765
10.04 167.327515
10.06 154.11702
10.08 142.070206
10.10 155.361084
10.12 169.328705
10.14 165.602234
10.16 162.585831
10.18 144.713684
10.20 161.099701
10.22 168.355484
10.24 154.822662
10.26 162.770111
10.28 166.210587
10.30 163.204742
10.32 173.431168
10.34 183.443665
10.36 191.945862
10.38 193.191315
10.40 174.975479
10.42 178.031525
10.44 183.600174
10.46 173.015869
10.48 174.09877
10.50 174.131897
10.52 170.110687
10.54 176.257202
10.56 177.594833
10.58 201.551224
10.60 195.994171
10.62 183.482986
10.64 181.955383
10.66 189.256332
10.68 192.156265
10.70 189.586533
10.72 196.385498
10.74 190.561279
10.76 183.920212
10.78 183.230469
10.80 180.748947
10.82 188.435486
10.84 184.222717
10.86 180.440491
10.88 193.500626
10.90 198.71434
10.92 174.606766
10.94 188.00148
10.96 202.198273
10.98 198.270309
11.00 182.728058
11.02 188.261215
11.04 193.156647
11.06 208.548737
11.08 205.390442
11.10 203.851059
11.12 206.447662
11.14 208.790253
11.16 208.998444
11.18 212.877228
11.20 203.883682
11.22 207.574097
11.24 219.633362
11.26 218.331375
11.28 205.086273
11.30 205.821014
11.32 198.279572
11.34 193.503769
11.36 205.201874
11.38 221.465988
11.40 217.264267
11.42 216.498566
11.44 229.334915
11.46 214.848618
11.48 226.732407
11.50 234.295837
11.52 212.590393
11.54 222.021637
11.56 219.526962
11.58 220.888474
11.60 218.984268
11.62 223.916016
11.64 232.765106
11.66 220.283432
11.68 216.747177
11.70 221.087677
11.72 239.666458
11.74 222.274628
11.76 223.695816
11.78 237.106384
11.80 233.595306
11.82 231.124161
11.84 238.593079
11.86 237.502731
11.88 230.91716
11.90 235.873947
11.92 237.294357
11.94 233.185883
11.96 231.201172
11.98 232.336517
12.00 238.42308
12.02 240.131699
12.04 225.159393
12.06 226.949478
12.08 231.844879
12.10 235.76088
12.12 236.719528
12.14 225.458679
12.16 237.605743
12.18 251.994125
12.20 237.968079
12.22 232.501358
12.24 241.786346
12.26 254.473557
12.28 245.553818
12.30 249.03923
12.32 244.115845
12.34 250.445877
12.36 237.853699
12.38 235.216278
12.40 248.880692
12.42 257.675812
12.44 249.201416
12.46 252.716843
12.48 247.722504
12.50 258.014099
12.52 249.250839
12.54 268.885071
12.56 260.44931
12.58 269.778717
12.60 259.306244
12.62 253.251724
12.64 262.157227
12.66 256.265259
12.68 260.88974
12.70 264.202362
12.72 269.002533
12.74 277.847839
12.76 270.191895
12.78 287.983124
12.80 277.98468
12.82 264.820129
12.84 264.134796
12.86 269.845123
12.88 279.273499
12.90 260.914948
12.92 243.959244
12.94 262.359253
12.96 270.191101
12.98 264.577942
13.00 260.368469
13.02 274.213074
13.04 263.58847
13.06 264.911804
13.08 257.836334
13.10 251.268372
13.12 253.923416
13.14 263.871765
13.16 285.168243
13.18 275.353882
13.20 254.418564
13.22 265.735382
13.24 275.653687
13.26 267.028748
13.28 272.947479
13.30 261.355957
13.32 291.008972
13.34 284.443695
13.36 276.648376
13.38 271.38443
13.40 269.978485
13.42 280.23172
13.44 267.276672
13.46 255.756393
13.48 269.044067
13.50 272.509094
13.52 270.929962
13.54 286.897095
13.56 296.416687
13.58 285.21579
13.60 280.141235
13.62 291.477112
13.64 303.002319
13.66 283.712646
13.68 272.906586
13.70 285.776123
13.72 307.71579
13.74 301.470978
13.76 319.618256
13.78 317.220093
13.80 318.278442
13.82 302.877075
13.84 309.705414
13.86 309.574493
13.88 297.98291
13.90 312.66217
13.92 299.154266
13.94 296.804993
13.96 301.679016
13.98 320.259247
14.00 315.246246
14.02 304.09967
14.04 301.879028
14.06 299.030609
14.08 304.043915
14.10 296.308899
14.12 310.374176
14.14 325.202209
14.16 322.200714
14.18 303.019165
14.20 297.033325
14.22 303.399323
14.24 302.848602
14.26 309.808929
14.28 314.166473
14.30 301.052429
14.32 303.516083
14.34 290.278748
14.36 290.573608
14.38 291.699219
14.40 279.16098
14.42 268.560425
14.44 284.218628
14.46 306.554718
14.48 298.910461
14.50 285.725403
14.52 280.224426
14.54 287.820099
14.56 292.522705
14.58 286.475128
14.60 303.355164
14.62 295.792664
14.64 283.549835
14.66 276.074554
14.68 278.204407
14.70 281.193604
14.72 284.946198
14.74 284.166565
14.76 283.772583
14.78 284.829132
14.80 291.866272
14.82 302.205627
14.84 314.382629
14.86 300.708344
14.88 299.026642
14.90 307.806091
14.92 301.793823
14.94 307.678131
14.96 301.755096
14.98 304.203705
15.00 298.256683
15.02 313.833496
15.04 314.64389
15.06 303.285828
15.08 316.419189
15.10 312.447937
15.12 309.906677
15.14 298.108307
15.16 317.141266
15.18 309.588989
15.20 334.11203
15.22 330.961578
15.24 328.795898
15.26 322.327881
15.28 334.809845
15.30 340.098969
15.32 334.226624
15.34 336.29718
15.36 331.937714
15.38 329.889099
15.40 327.592957
15.42 332.8815
15.44 328.282837
15.46 317.775055
15.48 328.140442
15.50 333.105469
15.52 340.005768
15.54 337.676422
15.56 326.863922
15.58 330.712219
15.60 340.279755
15.62 342.496826
15.64 339.509125
15.66 309.862396
15.68 319.309814
15.70 333.842804
15.72 329.881409
15.74 335.368713
15.76 333.307312
15.78 327.188171
15.80 319.24353
15.82 326.800262
15.84 321.442444
15.86 303.784424
15.88 316.346375
15.90 317.45752
15.92 306.352051
15.94 318.573181
15.96 326.523529
15.98 334.444489
16.00 327.604248
16.02 315.926941
16.04 310.802917
16.06 313.227722
16.08 311.829834
16.10 311.368927
16.12 324.003845
16.14 320.94455
16.16 293.192871
16.18 302.980713
16.20 312.321869
16.22 330.621979
16.24 343.22934
16.26 323.293304
16.28 306.545166
16.30 306.397736
16.32 303.84613
16.34 304.492065
16.36 312.925537
16.38 319.650635
16.40 320.222351
16.42 322.201599
16.44 313.847137
16.46 314.66275
16.48 315.198486
16.50 308.090942
16.52 313.621765
16.54 313.117554
16.56 317.848816
16.58 335.840027
16.60 337.081665
16.62 334.75885
16.64 333.619781
16.66 338.509521
16.68 327.270569
16.70 311.028748
16.72 308.569733
16.74 326.172089
16.76 331.420746
16.78 321.700653
16.80 309.746582
16.82 329.500092
16.84 338.151703
16.86 341.978546
16.88 324.793427
16.90 327.820862
16.92 330.968079
16.94 334.710175
16.96 333.702972
16.98 322.055206
17.00 316.769958
17.02 338.122681
17.04 335.205353
17.06 341.463715
17.08 338.095093
17.10 340.402008
17.12 328.359375
17.14 336.488556
17.16 341.427521
17.18 358.976135
17.20 353.70694
17.22 346.821686
17.24 337.452301
17.26 342.828644
17.28 333.572693
17.30 341.200195
17.32 348.447174
17.34 347.218262
17.36 342.631714
17.38 333.608429
17.40 342.540466
17.42 340.51239
17.44 337.367371
17.46 329.358826
17.48 343.148651
17.50 354.54599
17.52 354.340485
17.54 341.779724
17.56 341.099487
17.58 337.906586
17.60 348.320251
17.62 325.333435
17.64 318.720367
17.66 332.64798
17.68 337.413116
17.70 348.408936
17.72 350.395416
17.74 357.830292
17.76 363.776978
17.78 382.650757
17.80 370.553284
17.82 358.937805
17.84 346.349854
17.86 345.14093
17.88 356.798126
17.90 349.565094
17.92 345.344727
17.94 359.829773
17.96 357.491791
17.98 353.100769
18.00 360.5672
18.02 354.495026
18.04 356.850037
18.06 361.65976
18.08 343.944824
18.10 355.369965
18.12 369.337128
18.14 372.850555
18.16 379.101379
18.18 377.961121
18.20 380.483765
18.22 354.349976
18.24 355.633514
18.26 376.617371
18.28 375.289459
18.30 366.675446
18.32 369.481812
18.34 378.916107
18.36 377.508972
18.38 372.917694
18.40 370.784241
18.42 362.973236
18.44 361.660889
18.46 377.520813
18.48 376.862183
18.50 382.955872
18.52 384.208221
18.54 389.200867
18.56 384.799316
18.58 377.465118
18.60 374.01886
18.62 379.349579
18.64 381.059906
18.66 378.105804
18.68 373.103241
18.70 374.466553
18.72 378.348999
18.74 384.39325
18.76 393.20993
18.78 397.5448
18.80 393.893158
18.82 411.945557
18.84 408.495575
18.86 394.782074
18.88 383.471497
18.90 404.745667
18.92 411.851837
18.94 400.980408
18.96 397.489746
18.98 401.281769
19.00 391.251404
19.02 397.707855
19.04 391.015747
19.06 387.71225
19.08 394.854431
19.10 401.028595
19.12 389.280365
19.14 403.211639
19.16 415.448853
19.18 431.123169
19.20 399.947784
19.22 401.419556
19.24 408.980164
19.26 412.132416
19.28 407.994171
19.30 402.722076
19.32 404.267181
19.34 398.122681
19.36 397.312836
19.38 409.889374
19.40 431.08017
19.42 416.265808
19.44 406.008331
19.46 412.40744
19.48 418.57077
19.50 417.18454
19.52 418.898743
19.54 425.661133
19.56 434.864044
19.58 424.711243
19.60 423.166565
19.62 425.403076
19.64 427.2547
19.66 431.479828
19.68 432.631134
19.70 437.02124
19.72 432.365509
19.74 437.214203
19.76 436.984802
19.78 447.201813
19.80 448.433228
19.82 438.616089
19.84 425.769592
19.86 432.06015
19.88 444.363007
19.90 434.65918
19.92 436.267029
19.94 448.348846
19.96 445.459595
19.98 447.133667
20.00 460.97168
20.02 463.948792
20.04 460.643829
20.06 432.978241
20.08 444.896515
20.10 451.189697
20.12 435.286255
20.14 444.784149
20.16 449.699219
20.18 448.003448
20.20 441.451202
20.22 434.528656
20.24 428.757568
20.26 449.188995
20.28 452.012177
20.30 450.938507
20.32 451.19574
20.34 446.007874
20.36 456.444275
20.38 464.98233
20.40 479.676941
20.42 466.526733
20.44 450.714569
20.46 462.234222
20.48 462.623138
20.50 460.757507
20.52 459.746765
20.54 454.336426
20.56 464.416565
20.58 464.554382
20.60 465.854523
20.62 464.694
20.64 445.942444
20.66 462.662231
20.68 452.180267
20.70 455.348907
20.72 456.793488
20.74 469.767731
20.76 467.09668
20.78 462.355804
20.80 471.046753
20.82 465.523743
20.84 478.892303
20.86 487.411346
20.88 478.915375
20.90 470.199554
20.92 470.959808
20.94 486.134247
20.96 471.006683
20.98 477.480804
21.00 475.709473
21.02 468.284515
21.04 466.420105
21.06 469.55304
21.08 482.913239
21.10 486.935883
21.12 490.284119
21.14 484.984436
21.16 494.907379
21.18 504.438416
21.20 491.667328
21.22 480.088959
21.24 478.160461
21.26 484.39325
21.28 485.549744
21.30 476.00177
21.32 478.33374
21.34 500.031921
21.36 497.825684
21.38 492.36142
21.40 489.286926
21.42 501.514038
21.44 503.607605
21.46 510.460297
21.48 515.907593
21.50 530.804138
21.52 531.385864
21.54 528.010498
21.56 530.074158
21.58 532.379089
21.60 528.422546
21.62 524.88739
21.64 529.891907
21.66 538.728394
21.68 546.433228
21.70 535.005798
21.72 512.044617
21.74 518.087708
21.76 532.840149
21.78 537.775574
21.80 547.524475
21.82 548.727844
21.84 546.70752
21.86 554.197266
21.88 552.69043
21.90 541.317749
21.92 550.784058
21.94 550.574402
21.96 548.509949
21.98 559.898926
22.00 581.074646
22.02 563.663818
22.04 552.702942
22.06 558.28656
22.08 570.004395
22.10 567.288879
22.12 558.369873
22.14 527.169067
22.16 532.66449
22.18 544.09845
22.20 560.748962
22.22 558.271057
22.24 549.113647
22.26 543.577393
22.28 539.981506
22.30 553.166687
22.32 554.010254
22.34 542.362061
22.36 553.845459
22.38 541.851563
22.40 537.801758
22.42 547.927612
22.44 540.833252
22.46 549.285034
22.48 563.272522
22.50 548.258118
22.52 563.177002
22.54 563.405457
22.56 542.888367
22.58 536.818054
22.60 551.07959
22.62 541.83606
22.64 548.726196
22.66 544.126892
22.68 535.955139
22.70 550.787476
22.72 564.976685
22.74 563.787231
22.76 542.064392
22.78 544.07489
22.80 551.836304
22.82 539.649109
22.84 550.537292
22.86 562.93512
22.88 555.018616
22.90 550.599854
22.92 544.037048
22.94 553.30249
22.96 572.519348
22.98 578.762573
23.00 566.860718
23.02 568.976624
23.04 572.828979
23.06 580.06543
23.08 580.072388
23.10 576.13501
23.12 571.42218
23.14 575.22699
23.16 573.316711
23.18 556.195068
23.20 566.186523
23.22 565.960938
23.24 567.551636
23.26 572.247009
23.28 576.217224
23.30 565.695251
23.32 572.772278
23.34 565.631531
23.36 555.278259
23.38 572.481201
23.40 569.583313
23.42 569.892395
23.44 579.763733
23.46 568.858459
23.48 591.199097
23.50 574.852112
23.52 556.268127
23.54 569.782043
23.56 561.489502
23.58 570.637451
23.60 577.989685
23.62 572.924255
23.64 565.373596
23.66 564.962402
23.68 574.147644
23.70 590.084961
23.72 584.395752
23.74 573.783813
23.76 560.403381
23.78 593.009766
23.80 593.447205
23.82 573.966248
23.84 548.045715
23.86 556.754089
23.88 576.51123
23.90 577.654114
23.92 575.209778
23.94 581.170715
23.96 582.130249
23.98 568.772278
24.00 580.571777
24.02 577.862366
24.04 580.867981
24.06 596.621887
24.08 580.263184
24.10 595.215271
24.12 592.506287
24.14 578.896851
24.16 579.571045
24.18 575.234985
24.20 579.694336
24.22 575.898376
24.24 587.189331
24.26 577.512085
24.28 578.931641
24.30 576.022644
24.32 576.104614
24.34 580.05896
24.36 575.608032
24.38 589.688843
24.40 596.422485
24.42 596.373718
24.44 587.023376
24.46 583.282043
24.48 598.813232
24.50 590.039551
24.52 582.824585
24.54 590.670593
24.56 589.066284
24.58 576.546326
24.60 575.705811
24.62 570.566284
24.64 570.935181
24.66 586.523438
24.68 584.748413
24.70 581.689148
24.72 587.516846
24.74 584.985657
24.76 581.110535
24.78 594.443604
24.80 592.614441
24.82 580.731018
24.84 572.936584
24.86 570.086548
24.88 591.578857
24.90 592.857239
24.92 583.93103
24.94 574.735168
24.96 583.095459
24.98 580.66333
25.00 570.043762
25.02 571.14563
25.04 580.124878
25.06 578.596741
25.08 580.909973
25.10 587.982422
25.12 583.10199
25.14 584.607178
25.16 584.958923
25.18 597.487183
25.20 598.403259
25.22 597.367249
25.24 603.862427
25.26 591.137939
25.28 565.083801
25.30 574.119934
25.32 583.428345
25.34 578.319336
25.36 577.783386
25.38 582.357178
25.40 595.453979
25.42 595.210571
25.44 587.532776
25.46 585.578613
25.48 572.301331
25.50 566.211121
25.52 577.7547
25.54 597.171875
25.56 602.500305
25.58 606.023621
25.60 608.733154
25.62 604.388977
25.64 588.904907
25.66 566.433228
25.68 576.19989
25.70 589.104675
25.72 594.122803
25.74 594.063538
25.76 585.599487
25.78 600.554565
25.80 599.126282
25.82 604.549377
25.84 598.649231
25.86 574.093262
25.88 585.688171
25.90 579.010986
25.92 573.073975
25.94 572.67041
25.96 593.703125
25.98 581.44458
26.00 570.550659
26.02 581.707153
26.04 594.835083
26.06 582.332275
26.08 585.35437
26.10 599.966797
26.12 597.020752
26.14 584.065979
26.16 579.895325
26.18 570.749512
26.20 564.302612
26.22 586.00293
26.24 603.659607
26.26 595.037598
26.28 582.369873
26.30 581.954346
26.32 588.639343
26.34 584.461731
26.36 584.86084
26.38 578.573486
26.40 581.563782
26.42 595.600647
26.44 585.539368
26.46 585.692505
26.48 568.200134
26.50 566.052551
26.52 570.62616
26.54 585.047119
26.56 596.370972
26.58 596.134644
26.60 574.014038
26.62 561.826721
26.64 570.137695
26.66 579.342102
26.68 596.21991
26.70 586.627869
26.72 569.16803
26.74 578.560486
26.76 587.846313
26.78 581.367554
26.80 576.218628
26.82 574.034912
26.84 577.611572
26.86 592.921875
26.88 590.578308
26.90 602.862061
26.92 588.756836
26.94 588.137329
26.96 565.501953
26.98 576.223633
27.00 591.187744
27.02 590.625549
27.04 593.27417
27.06 592.644653
27.08 587.904114
27.10 582.841187
27.12 578.084045
27.14 573.311218
27.16 580.688354
27.18 582.874634
27.20 568.833923
27.22 574.197815
27.24 575.202271
27.26 569.045898
27.28 576.521179
27.30 566.163452
27.32 570.221497
27.34 577.780579
27.36 571.120422
27.38 567.796692
27.40 566.158203
27.42 563.42218
27.44 578.300232
27.46 568.143799
27.48 579.881531
27.50 590.450684
27.52 587.768494
27.54 584.605347
27.56 583.009705
27.58 555.9823
27.60 567.187927
27.62 564.913513
27.64 560.467712
27.66 573.238403
27.68 580.217834
27.70 580.924805
27.72 575.202454
27.74 566.410583
27.76 565.402893
27.78 568.519592
27.80 573.824646
27.82 567.3349
27.84 571.840088
27.86 587.942993
27.88 577.304932
27.90 567.721252
27.92 593.486389
27.94 586.555481
27.96 576.216858
27.98 585.115967
28.00 582.178894
28.02 592.66687
28.04 595.726807
28.06 606.201904
28.08 602.898315
28.10 600.798889
28.12 586.791199
28.14 590.32959
28.16 604.197815
28.18 604.632874
28.20 594.168579
28.22 583.600708
28.24 588.779602
28.26 589.378357
28.28 585.862122
28.30 601.640564
28.32 605.065369
28.34 597.118103
28.36 606.604553
28.38 609.997009
28.40 586.169617
28.42 583.658203
28.44 587.728149
28.46 603.80896
28.48 589.223633
28.50 602.371338
28.52 605.781433
28.54 594.309204
28.56 594.699219
28.58 596.724548
28.60 588.82373
28.62 584.06189
28.64 583.167419
28.66 584.505432
28.68 594.268982
28.70 580.733276
28.72 579.861816
28.74 580.221924
28.76 588.138611
28.78 578.836121
28.80 578.552368
28.82 566.894104
28.84 574.224548
28.86 555.053772
28.88 558.990601
28.90 571.681458
28.92 561.758118
28.94 561.281311
28.96 551.455383
28.98 540.453247
29.00 545.799255
29.02 553.376648
29.04 566.062439
29.06 560.788147
29.08 550.65387
29.10 546.496704
29.12 544.236633
29.14 546.55127
29.16 539.354553
29.18 548.934082
29.20 546.13208
29.22 550.160828
29.24 542.363159
29.26 534.76947
29.28 551.260681
29.30 554.818481
29.32 551.60144
29.34 535.962585
29.36 536.360962
29.38 533.55957
29.40 544.363037
29.42 552.653076
29.44 548.795166
29.46 547.012024
29.48 537.0672
29.50 530.198669
29.52 543.835571
29.54 552.570923
29.56 554.319092
29.58 547.066345
29.60 533.856445
29.62 531.723877
29.64 537.397827
29.66 525.259583
29.68 533.096863
29.70 543.583679
29.72 538.808899
29.74 539.540466
29.76 537.282532
29.78 531.539795
29.80 545.189697
29.82 549.439453
29.84 528.156616
29.86 537.540039
29.88 540.669067
29.90 526.042297
29.92 528.475586
29.94 518.437744
29.96 512.15387
29.98 526.940002
30.00 532.75708
30.02 527.54364
30.04 530.086548
30.06 528.801514
30.08 527.579041
30.10 542.813965
30.12 530.859802
30.14 524.959656
30.16 534.488098
30.18 540.190857
30.20 527.164795
30.22 527.214111
30.24 533.361633
30.26 524.848328
30.28 526.919556
30.30 530.930725
30.32 511.420258
30.34 517.093201
30.36 510.999573
30.38 525.749817
30.40 540.643372
30.42 528.204468
30.44 522.058411
30.46 521.031433
30.48 516.993591
30.50 527.520691
30.52 517.276001
30.54 516.629639
30.56 527.442932
30.58 520.56665
30.60 516.325684
30.62 510.724457
30.64 503.582703
30.66 500.971222
30.68 503.030914
30.70 523.674377
30.72 515.416016
30.74 519.99823
30.76 515.099548
30.78 504.397095
30.80 509.864685
30.82 529.203613
30.84 534.2901
30.86 517.89502
30.88 507.602325
30.90 518.816711
30.92 536.480225
30.94 526.020569
30.96 514.215088
30.98 510.251617
31.00 511.93103
31.02 528.496826
31.04 522.14624
31.06 515.395142
31.08 510.163208
31.10 517.788635
31.12 515.772461
31.14 521.667419
31.16 530.267029
31.18 524.052856
31.20 524.9375
31.22 533.121765
31.24 544.671204
31.26 520.015137
31.28 530.569214
31.30 546.928955
31.32 529.108093
31.34 533.667297
31.36 534.122864
31.38 533.952454
31.40 540.383667
31.42 552.677917
31.44 533.562012
31.46 535.453796
31.48 529.721863
31.50 534.994568
31.52 542.611633
31.54 541.955383
31.56 528.718445
31.58 550.442627
31.60 551.942749
31.62 531.872864
31.64 537.959717
31.66 527.570496
31.68 522.236816
31.70 523.835693
31.72 534.664124
31.74 537.429932
31.76 532.336914
31.78 520.657532
31.80 523.702881
31.82 521.116821
31.84 518.32312
31.86 528.297729
31.88 528.223389
31.90 514.228943
31.92 508.508087
31.94 514.517395
31.96 494.474274
31.98 490.90921
32.00 497.74707
32.02 496.742249
32.04 502.921478
32.06 491.131042
32.08 492.73587
32.10 495.066895
32.12 496.488831
32.14 485.482025
32.16 472.140411
32.18 488.111725
32.20 500.553619
32.22 498.471832
32.24 494.399841
32.26 477.51535
32.28 481.685486
32.30 479.101196
32.32 477.810089
32.34 487.340302
32.36 473.705322
32.38 468.976776
32.40 479.352844
32.42 464.24173
32.44 457.089966
32.46 456.299774
32.48 468.394043
32.50 478.127045
32.52 460.849579
32.54 468.219086
32.56 452.69754
32.58 455.331604
32.60 460.455261
32.62 461.627319
32.64 467.924744
32.66 464.212799
32.68 460.707153
32.70 458.198975
32.72 472.810883
32.74 459.172211
32.76 439.848328
32.78 430.619537
32.80 442.580811
32.82 463.853271
32.84 457.809296
32.86 464.980225
32.88 477.012268
32.90 473.489166
32.92 449.865997
32.94 440.104736
32.96 456.54422
32.98 462.28476
33.00 455.266327
33.02 453.350616
33.04 462.54599
33.06 465.048309
33.08 447.093262
33.10 429.242126
33.12 433.060059
33.14 445.264404
33.16 439.642456
33.18 433.553192
33.20 422.699554
33.22 422.528015
33.24 437.179352
33.26 429.705292
33.28 436.324097
33.30 439.581146
33.32 444.67215
33.34 436.725555
33.36 422.506348
33.38 434.46933
33.40 433.473877
33.42 432.370178
33.44 446.707092
33.46 445.822449
33.48 439.612671
33.50 441.053986
33.52 434.028381
33.54 432.975555
33.56 426.083313
33.58 440.451477
33.60 444.211182
33.62 428.914124
33.64 416.256561
33.66 434.912964
33.68 425.14856
33.70 434.875336
33.72 441.66275
33.74 445.469513
33.76 428.477478
33.78 431.754242
33.80 420.658478
33.82 437.377655
33.84 438.416138
33.86 427.850372
33.88 416.859192
33.90 419.470795
33.92 438.276276
33.94 454.612823
33.96 436.112152
33.98 420.594513
34.00 421.571167
34.02 426.820465
34.04 424.010284
34.06 424.148071
34.08 428.568665
34.10 428.318451
34.12 431.27478
34.14 421.375977
34.16 427.930328
34.18 424.846649
34.20 424.372772
34.22 434.602753
34.24 426.277863
34.26 428.528625
34.28 430.312164
34.30 436.129486
34.32 429.731293
34.34 417.598572
34.36 424.182068
34.38 425.033783
34.40 419.562561
34.42 431.067596
34.44 424.037842
34.46 435.354919
34.48 427.970093
34.50 419.616699
34.52 418.033997
34.54 413.729736
34.56 407.735229
34.58 426.880951
34.60 437.283417
34.62 416.960815
34.64 442.694061
34.66 448.909027
34.68 440.232086
34.70 426.095306
34.72 427.402679
34.74 432.131958
34.76 434.378296
34.78 442.631866
34.80 430.235626
34.82 416.712158
34.84 433.592194
34.86 436.19574
34.88 424.963287
34.90 427.169891
34.92 442.931366
34.94 443.611145
34.96 442.052765
34.98 443.792572
35.00 445.735779
35.02 438.42923
35.04 434.267059
35.06 426.733368
35.08 442.23114
35.10 453.664276
35.12 447.863373
35.14 446.846802
35.16 436.674805
35.18 429.864655
35.20 429.287903
35.22 420.006073
35.24 418.410309
35.26 437.187653
35.28 433.454254
35.30 425.606262
35.32 426.500061
35.34 429.301117
35.36 416.736084
35.38 420.387299
35.40 415.497528
35.42 405.628693
35.44 408.724579
35.46 411.07312
35.48 403.982422
35.50 393.769196
35.52 390.423157
35.54 379.908875
35.56 376.199799
35.58 384.022308
35.60 401.548248
35.62 398.379517
35.64 394.382446
35.66 400.84729
35.68 395.739227
35.70 383.671509
35.72 381.535675
35.74 386.70459
35.76 384.693756
35.78 380.589447
35.80 369.642059
35.82 371.008331
35.84 391.763
35.86 397.954651
35.88 382.766632
35.90 376.769775
35.92 376.285248
35.94 372.033875
35.96 367.928986
35.98 374.645416
36.00 367.034576
36.02 370.492767
36.04 368.532257
36.06 361.935364
36.08 366.427399
36.10 364.427704
36.12 373.09906
36.14 370.493134
36.16 379.117126
36.18 371.283722
36.20 367.504181
36.22 367.321869
36.24 356.973083
36.26 348.683807
36.28 357.192444
36.30 360.161163
36.32 356.351074
36.34 359.801819
36.36 347.208435
36.38 346.592743
36.40 342.162231
36.42 348.140015
36.44 353.786621
36.46 361.747314
36.48 375.056335
36.50 372.573334
36.52 361.370758
36.54 367.412811
36.56 363.320007
36.58 361.961578
36.60 370.516937
36.62 349.536926
36.64 330.928375
36.66 351.496155
36.68 367.771454
36.70 366.166931
36.72 358.277771
36.74 351.254242
36.76 345.838745
36.78 340.432709
36.80 351.518433
36.82 356.998718
36.84 354.687073
36.86 336.921906
36.88 350.257477
36.90 346.515594
36.92 347.116089
36.94 349.69101
36.96 329.639069
36.98 335.010223
37.00 341.39743
37.02 348.489807
37.04 343.698975
37.06 341.514221
37.08 340.499817
37.10 337.307831
37.12 340.357697
37.14 348.288788
37.16 342.661438
37.18 338.217255
37.20 338.411163
37.22 339.92334
37.24 328.175842
37.26 325.449982
37.28 337.591919
37.30 348.74234
37.32 345.097168
37.34 341.202972
37.36 334.066528
37.38 344.062836
37.40 330.773468
37.42 322.852661
37.44 324.051544
37.46 330.547791
37.48 329.660736
37.50 325.221008
37.52 336.921783
37.54 339.027588
37.56 337.497986
37.58 336.525146
37.60 333.062714
37.62 333.678284
37.64 322.136871
37.66 338.168762
37.68 338.646118
37.70 328.692322
37.72 309.070282
37.74 312.194611
37.76 319.25235
37.78 318.851166
37.80 331.215668
37.82 327.427643
37.84 325.449005
37.86 343.004364
37.88 341.858276
37.90 343.75766
37.92 347.983795
37.94 341.462738
37.96 328.90448
37.98 334.658783
38.00 318.879364
38.02 304.41983
38.04 310.141693
38.06 322.103607
38.08 317.450714
38.10 313.37262
38.12 318.882965
38.14 325.203552
38.16 321.877838
38.18 327.906006
38.20 328.549225
38.22 313.764496
38.24 314.444672
38.26 321.057617
38.28 326.644958
38.30 321.329651
38.32 323.939117
38.34 329.086212
38.36 334.429932
38.38 332.501862
38.40 322.016754
38.42 323.662659
38.44 312.360992
38.46 321.77356
38.48 333.498749
38.50 336.436432
38.52 333.655701
38.54 319.864777
38.56 328.319305
38.58 331.340363
38.60 318.873688
38.62 305.123932
38.64 311.71817
38.66 315.11145
38.68 311.289337
38.70 310.08786
38.72 313.695496
38.74 318.42392
38.76 322.847626
38.78 324.05072
38.80 324.928741
38.82 314.118042
38.84 313.906097
38.86 303.265472
38.88 295.672974
38.90 308.094971
38.92 310.231049
38.94 302.484589
38.96 296.62561
38.98 293.855957
39.00 294.329773
39.02 300.225647
39.04 313.00473
39.06 299.380493
39.08 296.579071
39.10 281.20343
39.12 298.03653
39.14 303.538239
39.16 306.304047
39.18 303.083344
39.20 305.126587
39.22 298.761169
39.24 305.971832
39.26 294.519989
39.28 292.952606
39.30 302.3396
39.32 306.504211
39.34 300.660675
39.36 306.039551
39.38 298.213715
39.40 301.061523
39.42 296.675476
39.44 301.253876
39.46 289.742401
39.48 289.357025
39.50 297.488739
39.52 301.285339
39.54 283.754272
39.56 287.558685
39.58 288.017548
39.60 272.617981
39.62 280.460571
39.64 289.658936
39.66 279.953064
39.68 277.240448
39.70 281.492828
39.72 276.375977
39.74 275.301544
39.76 278.813721
39.78 283.120758
39.80 288.683167
39.82 282.144714
39.84 283.451721
39.86 275.80545
39.88 267.348145
39.90 259.695435
39.92 264.08902
39.94 282.550262
39.96 285.311188
39.98 284.730957
40.00 284.483429
