!@!!GADDS PLOTSO FILE: Chi integration type
!@!!Title/SampleName: ML_MAPbX3
!@!!User: NREL
!@!!Site: NREL SERF C211; SN 2510
!@!!Frame: 081022_MLProject_000_012.gfrm
!@!!Wavelengths    1.54184   1.54056   1.54439
!@!!Frame angles: 2Theta: 28.000 Omega: 5.000 Phi: 0.000 Chi: 90.000
!@!!Integration range: 2Theta: 10.000 to 40.000  Gamma: -135.000 to -45.000
!@!!Integration method: bin normalized
!@!N
!@!SS
!@!M
!@!L 0.0 0.0 0.0 0.0
!@!XDegrees
!@!YCounts
10.00 200.987579
10.02 195.468185
10.04 199.107025
10.06 194.808701
10.08 193.881088
10.10 189.665649
10.12 199.617798
10.14 208.477478
10.16 201.266144
10.18 199.219696
10.20 200.978073
10.22 199.454422
10.24 195.842346
10.26 197.564774
10.28 195.969452
10.30 200.001068
10.32 203.943604
10.34 204.350082
10.36 207.679047
10.38 204.455887
10.40 205.233047
10.42 211.536224
10.44 210.871216
10.46 207.377991
10.48 213.341858
10.50 216.241882
10.52 206.246201
10.54 209.966919
10.56 214.880142
10.58 219.066452
10.60 214.169418
10.62 209.108658
10.64 213.247696
10.66 211.335129
10.68 213.46817
10.70 217.108093
10.72 218.953964
10.74 218.50798
10.76 211.698288
10.78 206.841537
10.80 208.628052
10.82 214.469284
10.84 222.643753
10.86 224.13501
10.88 231.046204
10.90 223.626343
10.92 217.056992
10.94 219.409454
10.96 220.556335
10.98 226.759445
11.00 218.06749
11.02 214.663071
11.04 223.058701
11.06 225.94426
11.08 220.012009
11.10 225.973816
11.12 225.292709
11.14 229.503296
11.16 234.082718
11.18 234.279602
11.20 227.298248
11.22 226.163116
11.24 233.372925
11.26 234.552963
11.28 233.285461
11.30 228.592636
11.32 231.13382
11.34 230.056747
11.36 234.479202
11.38 234.762222
11.40 228.233459
11.42 230.950272
11.44 237.695313
11.46 239.214752
11.48 243.885544
11.50 251.316162
11.52 240.415436
11.54 238.156128
11.56 237.746002
11.58 243.660431
11.60 241.073715
11.62 241.431046
11.64 240.414597
11.66 237.963974
11.68 241.847549
11.70 238.205948
11.72 246.74942
11.74 245.974167
11.76 252.352234
11.78 250.687759
11.80 249.875977
11.82 245.220581
11.84 241.458557
11.86 246.314865
11.88 246.091217
11.90 247.972992
11.92 247.237381
11.94 249.289886
11.96 244.780869
11.98 248.322464
12.00 255.254364
12.02 250.176514
12.04 249.891876
12.06 253.653809
12.08 257.617035
12.10 253.722321
12.12 260.312134
12.14 259.725861
12.16 257.954346
12.18 261.06311
12.20 258.727295
12.22 258.381195
12.24 260.856293
12.26 268.387573
12.28 271.656372
12.30 271.857758
12.32 270.351898
12.34 270.698883
12.36 268.386963
12.38 267.250488
12.40 275.593353
12.42 278.158539
12.44 280.728271
12.46 276.502258
12.48 278.537994
12.50 290.21579
12.52 284.276611
12.54 288.830627
12.56 294.59021
12.58 296.66861
12.60 281.356323
12.62 285.030151
12.64 293.834564
12.66 292.193939
12.68 289.845947
12.70 289.329895
12.72 288.533478
12.74 288.583313
12.76 281.559692
12.78 283.445068
12.80 286.968475
12.82 288.176758
12.84 285.355316
12.86 283.484253
12.88 282.505554
12.90 280.205536
12.92 278.65271
12.94 278.853851
12.96 278.732361
12.98 280.713867
13.00 280.330383
13.02 282.762848
13.04 283.722412
13.06 278.343201
13.08 277.732788
13.10 277.310516
13.12 272.071777
13.14 277.229309
13.16 288.019257
13.18 286.077515
13.20 274.269623
13.22 284.13974
13.24 288.16568
13.26 289.655121
13.28 295.61673
13.30 292.455414
13.32 300.227692
13.34 296.033783
13.36 294.240051
13.38 303.031158
13.40 298.580078
13.42 306.469452
13.44 302.920563
13.46 299.983917
13.48 304.73822
13.50 308.620087
13.52 309.59671
13.54 318.485352
13.56 324.77533
13.58 336.002716
13.60 334.611877
13.62 335.819824
13.64 349.076447
13.66 347.517151
13.68 355.761719
13.70 364.990265
13.72 377.490387
13.74 380.49762
13.76 396.997986
13.78 414.245331
13.80 427.570648
13.82 418.590759
13.84 430.537354
13.86 434.007446
13.88 441.604156
13.90 461.083374
13.92 466.340515
13.94 470.148926
13.96 483.115784
13.98 503.639404
14.00 511.329926
14.02 498.147797
14.04 506.720398
14.06 507.737427
14.08 511.516479
14.10 488.978241
14.12 487.700806
14.14 490.260803
14.16 478.620087
14.18 458.001617
14.20 445.845856
14.22 427.440979
14.24 416.05246
14.26 403.179871
14.28 392.998077
14.30 367.836121
14.32 356.405518
14.34 341.209229
14.36 341.00293
14.38 330.394958
14.40 329.44635
14.42 327.68158
14.44 322.045105
14.46 325.076355
14.48 329.282166
14.50 329.321686
14.52 320.148865
14.54 316.339935
14.56 309.715118
14.58 311.784912
14.60 314.558441
14.62 299.713196
14.64 308.050476
14.66 309.313843
14.68 307.741486
14.70 311.543182
14.72 308.253143
14.74 306.360962
14.76 304.325317
14.78 307.743652
14.80 311.842804
14.82 313.859039
14.84 326.269012
14.86 314.903473
14.88 306.740997
14.90 317.988892
14.92 323.388214
14.94 326.27066
14.96 328.49649
14.98 322.622772
15.00 326.228546
15.02 330.935516
15.04 336.322418
15.06 337.246735
15.08 346.469574
15.10 333.227386
15.12 341.474396
15.14 333.849701
15.16 350.205566
15.18 352.867249
15.20 361.116364
15.22 363.536133
15.24 367.939636
15.26 379.696075
15.28 379.718048
15.30 375.06308
15.32 381.590179
15.34 390.099518
15.36 389.023956
15.38 392.172302
15.40 403.587341
15.42 418.009216
15.44 412.68277
15.46 410.060059
15.48 411.585419
15.50 410.407227
15.52 413.230835
15.54 417.402618
15.56 407.968109
15.58 404.193115
15.60 396.048737
15.62 396.014069
15.64 395.11795
15.66 377.083984
15.68 372.795868
15.70 377.029755
15.72 375.195435
15.74 372.105286
15.76 361.106049
15.78 355.573639
15.80 355.735565
15.82 358.401886
15.84 347.46051
15.86 339.187012
15.88 341.521729
15.90 341.76004
15.92 337.49588
15.94 337.414001
15.96 340.840302
15.98 352.141693
16.00 342.446838
16.02 327.674835
16.04 325.485901
16.06 331.404388
16.08 332.291382
16.10 324.285706
16.12 326.294891
16.14 326.607452
16.16 328.724823
16.18 323.715637
16.20 326.287231
16.22 329.614716
16.24 336.572083
16.26 334.286682
16.28 327.933868
16.30 331.980957
16.32 331.333893
16.34 326.391968
16.36 329.675201
16.38 330.544495
16.40 329.618469
16.42 333.041748
16.44 338.5802
16.46 333.090363
16.48 326.730103
16.50 323.666779
16.52 327.510498
16.54 334.9216
16.56 334.584656
16.58 342.180878
16.60 339.438599
16.62 334.320801
16.64 337.574646
16.66 339.780487
16.68 329.835022
16.70 336.575745
16.72 340.233704
16.74 343.986359
16.76 347.469543
16.78 338.697266
16.80 332.354248
16.82 340.635651
16.84 344.194519
16.86 355.052917
16.88 350.797455
16.90 344.290771
16.92 345.082489
16.94 343.058807
16.96 344.793457
16.98 339.19632
17.00 335.717804
17.02 351.889893
17.04 345.830231
17.06 347.032257
17.08 353.852631
17.10 348.444183
17.12 346.24527
17.14 352.802765
17.16 355.17038
17.18 357.783295
17.20 352.733093
17.22 356.264099
17.24 348.213196
17.26 348.733337
17.28 348.206848
17.30 345.587006
17.32 345.09552
17.34 349.475769
17.36 352.717957
17.38 350.293671
17.40 348.666595
17.42 356.458496
17.44 360.127899
17.46 357.793732
17.48 355.881561
17.50 356.558075
17.52 369.627136
17.54 363.127441
17.56 356.376007
17.58 349.475922
17.60 351.373352
17.62 350.308105
17.64 354.424805
17.66 349.508026
17.68 355.876312
17.70 369.764374
17.72 368.286377
17.74 366.439026
17.76 368.366943
17.78 377.808197
17.80 380.550018
17.82 379.198547
17.84 373.911865
17.86 374.787415
17.88 376.243164
17.90 369.256683
17.92 365.869385
17.94 372.161591
17.96 376.565155
17.98 379.746338
18.00 377.406738
18.02 378.096954
18.04 376.763306
18.06 382.032684
18.08 383.662537
18.10 374.990295
18.12 371.492676
18.14 376.349121
18.16 379.301636
18.18 379.391266
18.20 386.078003
18.22 385.5383
18.24 382.652985
18.26 397.780029
18.28 401.405396
18.30 389.983521
18.32 388.64325
18.34 396.019745
18.36 388.067505
18.38 382.845184
18.40 384.745697
18.42 384.463531
18.44 383.700653
18.46 392.130646
18.48 389.431976
18.50 394.187103
18.52 394.533539
18.54 400.679749
18.56 400.283569
18.58 388.555115
18.60 392.393616
18.62 394.555634
18.64 397.196869
18.66 400.489166
18.68 397.744385
18.70 406.001862
18.72 402.846893
18.74 398.276001
18.76 400.801086
18.78 407.204437
18.80 407.731903
18.82 421.18869
18.84 417.917694
18.86 409.447113
18.88 404.228363
18.90 412.852478
18.92 411.750305
18.94 409.602936
18.96 412.670349
18.98 416.405273
19.00 409.365479
19.02 413.029907
19.04 414.368103
19.06 410.307465
19.08 415.693695
19.10 412.740143
19.12 411.349762
19.14 422.355255
19.16 432.243439
19.18 430.153107
19.20 427.341187
19.22 424.038788
19.24 427.584747
19.26 432.627075
19.28 428.601044
19.30 420.596588
19.32 425.613861
19.34 424.463318
19.36 426.626373
19.38 431.38208
19.40 432.347351
19.42 427.430328
19.44 428.004913
19.46 429.052826
19.48 433.42392
19.50 431.762634
19.52 438.905457
19.54 442.129639
19.56 446.608521
19.58 446.301849
19.60 445.646698
19.62 443.422699
19.64 446.408051
19.66 452.973907
19.68 443.506622
19.70 447.826233
19.72 456.164703
19.74 459.169312
19.76 449.604156
19.78 452.026794
19.80 452.105621
19.82 449.529205
19.84 452.115601
19.86 466.218384
19.88 461.006866
19.90 457.932831
19.92 457.688049
19.94 471.555664
19.96 476.496277
19.98 467.93988
20.00 465.447632
20.02 463.529602
20.04 470.094025
20.06 464.16748
20.08 464.020721
20.10 467.636841
20.12 471.822235
20.14 474.055847
20.16 471.778259
20.18 472.062927
20.20 468.276062
20.22 461.735779
20.24 467.602905
20.26 473.745514
20.28 475.573822
20.30 477.625183
20.32 473.454773
20.34 469.81427
20.36 483.359619
20.38 486.983185
20.40 491.280579
20.42 483.642731
20.44 478.625
20.46 481.722015
20.48 470.782135
20.50 480.214935
20.52 486.020508
20.54 483.371857
20.56 488.663239
20.58 485.187805
20.60 487.811493
20.62 489.169617
20.64 489.124725
20.66 493.470734
20.68 484.874329
20.70 481.186218
20.72 485.795288
20.74 497.42868
20.76 495.642365
20.78 495.450928
20.80 503.527313
20.82 508.541351
20.84 515.104614
20.86 508.050903
20.88 505.026947
20.90 502.495819
20.92 504.509979
20.94 509.256165
20.96 498.46167
20.98 506.827148
21.00 508.036316
21.02 501.806335
21.04 510.536072
21.06 506.094849
21.08 514.227051
21.10 517.262207
21.12 516.487488
21.14 512.105591
21.16 511.984344
21.18 513.233398
21.20 511.307739
21.22 517.917664
21.24 525.195496
21.26 527.678406
21.28 521.391357
21.30 519.630737
21.32 516.588074
21.34 522.772278
21.36 519.389465
21.38 512.580627
21.40 524.956055
21.42 533.474243
21.44 536.125916
21.46 537.804932
21.48 545.416016
21.50 543.451355
21.52 540.88678
21.54 541.17334
21.56 547.716003
21.58 557.883728
21.60 557.940918
21.62 553.173096
21.64 555.328979
21.66 556.40625
21.68 557.827209
21.70 557.80365
21.72 558.669678
21.74 564.964844
21.76 561.031433
21.78 565.125061
21.80 572.097717
21.82 577.330994
21.84 580.840515
21.86 588.013672
21.88 585.617432
21.90 581.063599
21.92 587.755249
21.94 587.278076
21.96 594.850342
21.98 590.717346
22.00 597.631531
22.02 595.237122
22.04 592.297424
22.06 591.845337
22.08 595.609253
22.10 592.896667
22.12 586.701294
22.14 576.01532
22.16 585.785889
22.18 584.762207
22.20 597.44635
22.22 592.381104
22.24 582.493835
22.26 577.583984
22.28 576.416443
22.30 578.602966
22.32 576.802673
22.34 579.527222
22.36 580.437012
22.38 576.786072
22.40 581.205811
22.42 576.546021
22.44 577.818848
22.46 577.138611
22.48 580.001221
22.50 580.40625
22.52 585.125366
22.54 585.72345
22.56 584.347351
22.58 581.979187
22.60 574.315125
22.62 569.787903
22.64 574.158203
22.66 577.638733
22.68 572.136719
22.70 575.003357
22.72 582.686707
22.74 584.317139
22.76 572.625916
22.78 581.401733
22.80 581.508545
22.82 575.582336
22.84 581.878418
22.86 586.248535
22.88 590.476318
22.90 594.146729
22.92 595.546204
22.94 590.964478
22.96 596.234802
22.98 605.149902
23.00 601.614014
23.02 594.663513
23.04 595.80011
23.06 593.132507
23.08 589.867798
23.10 597.01825
23.12 602.409119
23.14 599.236084
23.16 594.533691
23.18 587.560059
23.20 599.684937
23.22 598.179443
23.24 595.015198
23.26 606.373901
23.28 605.856201
23.30 603.953552
23.32 603.202637
23.34 601.055908
23.36 598.386597
23.38 601.376404
23.40 595.843811
23.42 593.190613
23.44 599.354614
23.46 594.916687
23.48 606.734985
23.50 607.299133
23.52 599.651733
23.54 602.453308
23.56 605.614868
23.58 606.718933
23.60 612.378479
23.62 612.320435
23.64 600.136047
23.66 600.094421
23.68 600.414673
23.70 607.592224
23.72 607.795227
23.74 604.485168
23.76 589.853455
23.78 607.947327
23.80 611.2276
23.82 600.197571
23.84 593.311768
23.86 591.352966
23.88 595.468384
23.90 601.6698
23.92 601.84436
23.94 609.764648
23.96 609.91803
23.98 605.515198
24.00 615.14447
24.02 616.309875
24.04 615.009033
24.06 620.971252
24.08 608.203491
24.10 614.054077
24.12 613.666382
24.14 608.805603
24.16 611.492981
24.18 610.383667
24.20 618.123047
24.22 615.643494
24.24 605.46167
24.26 612.928833
24.28 622.420166
24.30 624.247437
24.32 615.537231
24.34 612.497375
24.36 616.603027
24.38 627.297485
24.40 628.578674
24.42 625.366821
24.44 619.411621
24.46 610.973267
24.48 622.184387
24.50 621.463867
24.52 617.271423
24.54 622.088928
24.56 629.717163
24.58 617.094116
24.60 607.720825
24.62 612.840637
24.64 619.561218
24.66 619.60083
24.68 617.917969
24.70 616.732483
24.72 618.365234
24.74 620.903503
24.76 616.533325
24.78 616.745728
24.80 620.425842
24.82 614.203674
24.84 619.732849
24.86 607.733582
24.88 609.919556
24.90 619.619141
24.92 615.371582
24.94 614.249939
24.96 620.88623
24.98 613.376099
25.00 613.005432
25.02 613.04425
25.04 617.983948
25.06 617.891479
25.08 620.009705
25.10 617.035034
25.12 613.432007
25.14 613.498596
25.16 613.721863
25.18 619.345581
25.20 615.836121
25.22 619.290344
25.24 622.9552
25.26 620.960449
25.28 610.44043
25.30 610.621643
25.32 614.725891
25.34 615.612244
25.36 615.382813
25.38 617.674011
25.40 613.966309
25.42 619.632324
25.44 621.761719
25.46 626.581543
25.48 617.095886
25.50 611.763672
25.52 617.021729
25.54 615.806274
25.56 620.791931
25.58 619.017029
25.60 620.960266
25.62 618.250122
25.64 616.389221
25.66 607.848267
25.68 615.07605
25.70 615.10614
25.72 618.1698
25.74 628.292358
25.76 627.704834
25.78 622.075134
25.80 623.172485
25.82 618.695618
25.84 619.542908
25.86 615.918701
25.88 614.856689
25.90 619.276184
25.92 621.668457
25.94 621.346375
25.96 621.764221
25.98 616.464294
26.00 614.110962
26.02 613.548523
26.04 618.280701
26.06 617.344666
26.08 617.231079
26.10 620.795715
26.12 624.105225
26.14 615.846313
26.16 614.857361
26.18 620.1203
26.20 614.016296
26.22 609.350525
26.24 614.133545
26.26 620.377258
26.28 620.197083
26.30 619.309265
26.32 611.151062
26.34 606.845337
26.36 606.02533
26.38 609.948792
26.40 619.419128
26.42 630.4151
26.44 617.224854
26.46 612.270508
26.48 609.032959
26.50 606.043884
26.52 607.492188
26.54 607.999695
26.56 621.423767
26.58 617.159363
26.60 606.313538
26.62 597.572144
26.64 593.936279
26.66 598.125732
26.68 608.842529
26.70 609.792908
26.72 601.998596
26.74 610.450073
26.76 619.747375
26.78 614.454041
26.80 608.403748
26.82 606.338318
26.84 608.047974
26.86 611.839233
26.88 613.047607
26.90 614.912903
26.92 613.469482
26.94 606.72229
26.96 610.085693
26.98 620.330261
27.00 623.050171
27.02 623.227539
27.04 615.128235
27.06 613.748413
27.08 614.199951
27.10 612.100098
27.12 606.079468
27.14 606.686218
27.16 608.381897
27.18 603.787842
27.20 599.042297
27.22 609.457153
27.24 610.248108
27.26 608.448059
27.28 604.537231
27.30 604.385803
27.32 602.987488
27.34 597.787231
27.36 603.131653
27.38 603.999695
27.40 605.714111
27.42 597.764404
27.44 602.17218
27.46 604.577637
27.48 609.467224
27.50 607.832397
27.52 606.618713
27.54 605.404541
27.56 608.239929
27.58 600.372009
27.60 599.493652
27.62 600.950684
27.64 602.410034
27.66 610.532166
27.68 611.838135
27.70 612.994141
27.72 602.906311
27.74 604.606201
27.76 608.58905
27.78 608.74353
27.80 606.098022
27.82 611.940735
27.84 614.833923
27.86 620.947876
27.88 621.554871
27.90 613.415833
27.92 616.618652
27.94 630.548706
27.96 623.081055
27.98 636.636169
28.00 636.51001
28.02 636.887512
28.04 637.264099
28.06 645.347107
28.08 645.361511
28.10 647.842102
28.12 649.340027
28.14 654.493347
28.16 663.715027
28.18 665.193848
28.20 665.545837
28.22 670.449707
28.24 677.951172
28.26 692.035339
28.28 689.297302
28.30 702.655029
28.32 706.571228
28.34 707.852051
28.36 715.887207
28.38 721.0896
28.40 703.268372
28.42 692.461487
28.44 688.527466
28.46 692.347046
28.48 684.931641
28.50 686.074463
28.52 677.456055
28.54 669.116394
28.56 656.889221
28.58 652.980347
28.60 649.425781
28.62 636.974121
28.64 628.740967
28.66 632.277466
28.68 632.643555
28.70 617.402283
28.72 620.228271
28.74 623.41156
28.76 618.702393
28.78 610.352234
28.80 606.65625
28.82 600.939148
28.84 597.465332
28.86 598.436218
28.88 597.182495
28.90 600.97406
28.92 597.549133
28.94 597.174744
28.96 590.10907
28.98 582.722107
29.00 585.961304
29.02 584.212097
29.04 586.458618
29.06 594.815735
29.08 581.916321
29.10 578.209778
29.12 583.30658
29.14 582.707581
29.16 587.608276
29.18 585.695313
29.20 581.473633
29.22 583.466919
29.24 579.290039
29.26 577.351746
29.28 571.200623
29.30 569.206543
29.32 574.264893
29.34 572.577332
29.36 571.481812
29.38 569.426147
29.40 576.573425
29.42 576.424011
29.44 575.486084
29.46 573.379639
29.48 567.579529
29.50 565.421753
29.52 564.450867
29.54 568.836243
29.56 573.509827
29.58 570.161987
29.60 568.895691
29.62 566.957336
29.64 560.817749
29.66 560.651306
29.68 563.300537
29.70 564.72644
29.72 565.399719
29.74 561.119751
29.76 554.14856
29.78 557.752258
29.80 564.779785
29.82 564.672119
29.84 563.080933
29.86 561.872986
29.88 560.585938
29.90 558.911194
29.92 561.196411
29.94 553.81897
29.96 555.696838
29.98 563.717468
30.00 564.009155
30.02 555.152771
30.04 553.153503
30.06 554.257507
30.08 560.255005
30.10 570.081238
30.12 568.412903
30.14 560.533997
30.16 549.869629
30.18 555.394409
30.20 549.875732
30.22 545.745972
30.24 557.579468
30.26 546.984558
30.28 550.890442
30.30 554.955627
30.32 545.976318
30.34 547.772522
30.36 554.14978
30.38 558.594543
30.40 560.533569
30.42 557.88446
30.44 549.130737
30.46 548.71759
30.48 545.7948
30.50 552.105957
30.52 554.090027
30.54 557.067139
30.56 557.132263
30.58 545.146606
30.60 548.016296
30.62 545.731445
30.64 543.768372
30.66 545.270935
30.68 548.288391
30.70 552.292542
30.72 552.791382
30.74 546.772522
30.76 540.762573
30.78 536.901306
30.80 541.313721
30.82 545.704407
30.84 549.885315
30.86 546.725525
30.88 549.667358
30.90 550.726563
30.92 554.229492
30.94 556.540894
30.96 555.553162
30.98 553.918579
31.00 557.671387
31.02 559.924561
31.04 554.736328
31.06 554.488342
31.08 553.316223
31.10 558.208069
31.12 565.284424
31.14 558.736694
31.16 566.005493
31.18 564.284363
31.20 566.673462
31.22 568.581726
31.24 575.818848
31.26 568.216064
31.28 570.296936
31.30 578.755371
31.32 571.851501
31.34 572.668945
31.36 571.214294
31.38 582.629028
31.40 587.754822
31.42 580.865601
31.44 572.642883
31.46 575.806213
31.48 577.554626
31.50 574.861267
31.52 572.78009
31.54 573.820313
31.56 572.541016
31.58 576.999146
31.60 572.722595
31.62 570.714966
31.64 576.896545
31.66 570.25415
31.68 567.305786
31.70 571.880249
31.72 567.689453
31.74 572.594543
31.76 575.64624
31.78 566.16156
31.80 561.917847
31.82 561.979919
31.84 560.94574
31.86 566.610779
31.88 563.96521
31.90 555.075378
31.92 552.911133
31.94 556.120911
31.96 547.657166
31.98 549.749695
32.00 550.22229
32.02 544.363831
32.04 548.425171
32.06 535.674927
32.08 537.655945
32.10 534.065002
32.12 528.632751
32.14 522.496399
32.16 526.490601
32.18 531.124329
32.20 529.64502
32.22 528.376282
32.24 520.454407
32.26 517.256042
32.28 515.269653
32.30 512.175659
32.32 515.949646
32.34 510.980652
32.36 504.823334
32.38 504.441254
32.40 509.77771
32.42 506.918884
32.44 502.769867
32.46 495.237213
32.48 493.695343
32.50 504.402802
32.52 496.830658
32.54 499.522308
32.56 495.021118
32.58 496.991455
32.60 489.639404
32.62 490.920135
32.64 496.320404
32.66 497.574738
32.68 492.76535
32.70 495.164276
32.72 484.48291
32.74 487.242645
32.76 482.795441
32.78 482.272125
32.80 484.719849
32.82 491.536896
32.84 489.065308
32.86 489.783997
32.88 493.718506
32.90 494.659454
32.92 482.746796
32.94 481.982056
32.96 487.967316
32.98 483.851013
33.00 483.184174
33.02 483.306458
33.04 492.179016
33.06 490.16037
33.08 472.485504
33.10 466.88443
33.12 475.57782
33.14 482.134247
33.16 478.301178
33.18 480.88858
33.20 473.272705
33.22 473.850677
33.24 472.839569
33.26 472.722961
33.28 477.044647
33.30 473.886078
33.32 473.238953
33.34 471.048248
33.36 463.584778
33.38 473.275787
33.40 477.918091
33.42 473.613037
33.44 473.225616
33.46 467.897858
33.48 470.020477
33.50 474.123749
33.52 467.884003
33.54 469.779053
33.56 465.785309
33.58 465.632233
33.60 466.668152
33.62 463.782867
33.64 465.161987
33.66 472.81488
33.68 467.989349
33.70 470.107147
33.72 469.948944
33.74 462.992767
33.76 462.741577
33.78 462.289795
33.80 457.001892
33.82 459.46579
33.84 466.587219
33.86 462.96225
33.88 458.525848
33.90 456.775299
33.92 457.837006
33.94 459.58786
33.96 454.880005
33.98 455.448822
34.00 451.328186
34.02 462.941437
34.04 456.195251
34.06 455.831177
34.08 457.25061
34.10 455.938385
34.12 449.802338
34.14 448.885925
34.16 453.825836
34.18 451.955475
34.20 449.679474
34.22 451.27356
34.24 455.886414
34.26 448.349823
34.28 448.88559
34.30 455.368958
34.32 451.023071
34.34 447.894897
34.36 453.303345
34.38 453.484375
34.40 451.888367
34.42 456.519165
34.44 443.820892
34.46 449.226105
34.48 450.388916
34.50 446.054749
34.52 451.982452
34.54 451.79837
34.56 449.679901
34.58 452.05954
34.60 460.053314
34.62 449.740143
34.64 454.081665
34.66 453.632751
34.68 453.81131
34.70 449.110138
34.72 450.12027
34.74 456.926514
34.76 456.678741
34.78 455.000366
34.80 448.667419
34.82 449.638275
34.84 461.966797
34.86 459.489685
34.88 454.598755
34.90 450.733398
34.92 456.107758
34.94 466.612427
34.96 464.008484
34.98 463.942352
35.00 459.047882
35.02 455.571228
35.04 459.217865
35.06 456.266022
35.08 458.934265
35.10 462.82019
35.12 461.61911
35.14 463.252655
35.16 458.749969
35.18 460.273743
35.20 460.533783
35.22 459.688934
35.24 452.193085
35.26 460.72049
35.28 452.78183
35.30 448.351837
35.32 445.434631
35.34 447.347015
35.36 450.722748
35.38 437.334564
35.40 430.077362
35.42 424.59845
35.44 427.663849
35.46 434.948456
35.48 432.756439
35.50 424.033569
35.52 419.138
35.54 419.581848
35.56 421.437958
35.58 422.494904
35.60 421.19632
35.62 416.030457
35.64 418.545837
35.66 421.077515
35.68 410.974579
35.70 412.157318
35.72 411.721466
35.74 408.648407
35.76 402.464569
35.78 405.18454
35.80 405.183167
35.82 405.693634
35.84 402.890991
35.86 406.174469
35.88 397.647888
35.90 395.180939
35.92 393.927185
35.94 388.855225
35.96 388.097046
35.98 394.39093
36.00 400.27475
36.02 398.0354
36.04 394.524414
36.06 395.694733
36.08 393.298584
36.10 391.218811
36.12 392.594666
36.14 387.48288
36.16 389.853912
36.18 386.519135
36.20 394.388458
36.22 388.556488
36.24 381.488159
36.26 382.68576
36.28 377.437897
36.30 381.585876
36.32 379.917236
36.34 381.550629
36.36 377.740723
36.38 381.679169
36.40 380.0979
36.42 382.729431
36.44 384.351318
36.46 382.808289
36.48 380.553925
36.50 385.654175
36.52 380.389191
36.54 382.153961
36.56 380.936096
36.58 374.634033
36.60 370.751862
36.62 368.447113
36.64 373.076477
36.66 374.839874
36.68 375.90744
36.70 375.424286
36.72 373.887756
36.74 373.304657
36.76 369.128998
36.78 366.274353
36.80 362.397583
36.82 369.300385
36.84 372.759186
36.86 365.111908
36.88 367.116425
36.90 364.826843
36.92 361.200714
36.94 360.816406
36.96 361.516174
36.98 364.096649
37.00 363.357239
37.02 370.191315
37.04 362.950989
37.06 367.950989
37.08 360.188721
37.10 355.612946
37.12 359.613007
37.14 366.871399
37.16 359.214417
37.18 357.494293
37.20 361.374512
37.22 362.94635
37.24 352.226837
37.26 358.303101
37.28 361.185211
37.30 360.618958
37.32 355.332642
37.34 348.048157
37.36 357.916992
37.38 360.379944
37.40 350.611206
37.42 347.727203
37.44 350.163727
37.46 353.288116
37.48 352.133209
37.50 351.050568
37.52 354.542603
37.54 351.257019
37.56 348.15564
37.58 352.240326
37.60 349.761169
37.62 351.315704
37.64 345.424408
37.66 350.487854
37.68 351.154236
37.70 349.815186
37.72 338.578583
37.74 341.734497
37.76 343.491272
37.78 338.84079
37.80 343.091949
37.82 348.487823
37.84 344.424927
37.86 351.19577
37.88 348.08905
37.90 342.907501
37.92 349.347107
37.94 352.667053
37.96 350.583893
37.98 345.09082
38.00 338.162506
38.02 331.718079
38.04 332.93811
38.06 340.219055
38.08 351.415619
38.10 343.758728
38.12 341.281158
38.14 341.211792
38.16 334.812775
38.18 338.764313
38.20 338.290985
38.22 336.829193
38.24 339.518219
38.26 334.113953
38.28 338.874237
38.30 337.28009
38.32 334.970673
38.34 339.280548
38.36 342.342346
38.38 336.844727
38.40 332.597046
38.42 335.366089
38.44 336.829651
38.46 339.368347
38.48 335.483551
38.50 340.825806
38.52 348.472321
38.54 342.431274
38.56 343.31012
38.58 345.061401
38.60 342.924408
38.62 338.006104
38.64 343.723602
38.66 342.262787
38.68 337.560547
38.70 334.958771
38.72 335.209259
38.74 336.79483
38.76 338.707764
38.78 339.149292
38.80 336.078583
38.82 330.966522
38.84 331.919647
38.86 330.138214
38.88 324.099976
38.90 332.766815
38.92 339.402191
38.94 338.041809
38.96 330.26358
38.98 320.242584
39.00 324.532013
39.02 329.096954
39.04 334.415802
39.06 329.298065
39.08 328.496338
39.10 326.896606
39.12 325.806061
39.14 327.024445
39.16 326.549316
39.18 322.169067
39.20 323.855286
39.22 321.767853
39.24 320.730164
39.26 323.57019
39.28 325.729462
39.30 317.654846
39.32 318.017029
39.34 320.416901
39.36 324.037628
39.38 317.691162
39.40 327.028534
39.42 321.274414
39.44 322.917664
39.46 323.647522
39.48 323.579071
39.50 320.023773
39.52 322.960266
39.54 315.802521
39.56 313.808533
39.58 314.765869
39.60 310.279999
39.62 314.209045
39.64 319.766754
39.66 316.906219
39.68 313.189423
39.70 313.966858
39.72 312.883148
39.74 310.695343
39.76 313.316589
39.78 310.760437
39.80 312.817078
39.82 312.073792
39.84 314.788544
39.86 310.732697
39.88 307.903351
39.90 310.42395
39.92 308.899963
39.94 310.39386
39.96 308.110138
39.98 305.777679
40.00 307.598663
