!@!!GADDS PLOTSO FILE: Chi integration type
!@!!Title/SampleName: ML_MAPbX3_chem4
!@!!User: NREL
!@!!Site: NREL SERF C211; SN 2510
!@!!Frame: C:\frames\rbelisle\MLProject\081022_MLProject_000_007.gfrm
!@!!Wavelengths    1.54184   1.54056   1.54439
!@!!Frame angles: 2Theta: 28.000 Omega: 5.000 Phi: 0.000 Chi: 90.000
!@!!Integration range: 2Theta: 10.000 to 40.000  Gamma: -100.000 to -80.000
!@!!Integration method: bin normalized
!@!N
!@!SS
!@!M
!@!L 0.0 0.0 0.0 0.0
!@!XDegrees
!@!YCounts
10.00 221.501282
10.02 221.70932
10.04 211.92218
10.06 221.660339
10.08 215.578308
10.10 204.066025
10.12 217.356537
10.14 211.847412
10.16 237.674408
10.18 241.257523
10.20 224.497223
10.22 218.539642
10.24 207.203705
10.26 213.675186
10.28 228.391464
10.30 238.735336
10.32 232.656326
10.34 240.747238
10.36 232.417343
10.38 198.273193
10.40 205.308502
10.42 214.164551
10.44 241.829803
10.46 242.412262
10.48 233.932236
10.50 215.145828
10.52 215.217834
10.54 233.081818
10.56 229.280869
10.58 207.213577
10.60 228.876877
10.62 244.761505
10.64 241.256729
10.66 234.848511
10.68 231.05011
10.70 235.280609
10.72 238.626541
10.74 234.54982
10.76 242.056091
10.78 249.534042
10.80 245.229752
10.82 227.012482
10.84 223.181534
10.86 234.097824
10.88 250.809494
10.90 250.503708
10.92 253.063187
10.94 246.117416
10.96 251.837662
10.98 256.331421
11.00 234.36676
11.02 237.84317
11.04 239.536575
11.06 210.464005
11.08 233.872543
11.10 250.07428
11.12 257.854187
11.14 247.063705
11.16 242.579697
11.18 244.164139
11.20 241.12178
11.22 244.844162
11.24 249.737701
11.26 244.141998
11.28 256.81424
11.30 257.003662
11.32 240.346909
11.34 244.621002
11.36 251.047562
11.38 239.286301
11.40 258.379395
11.42 264.896332
11.44 250.914017
11.46 265.313873
11.48 281.531616
11.50 283.735718
11.52 267.238983
11.54 254.822052
11.56 243.951828
11.58 239.200806
11.60 251.95488
11.62 265.148865
11.64 256.418121
11.66 273.191223
11.68 284.492859
11.70 295.828613
11.72 283.644257
11.74 275.915466
11.76 267.536255
11.78 265.671692
11.80 289.504181
11.82 299.078308
11.84 265.136322
11.86 286.534119
11.88 297.246765
11.90 275.394318
11.92 300.534576
11.94 304.373993
11.96 289.717285
11.98 302.545471
12.00 333.565735
12.02 331.935822
12.04 325.039764
12.06 325.801361
12.08 336.462189
12.10 341.341583
12.12 337.70871
12.14 366.399902
12.16 391.078888
12.18 384.959015
12.20 388.086121
12.22 411.694366
12.24 391.257385
12.26 416.673157
12.28 430.360931
12.30 473.311768
12.32 504.677734
12.34 537.889587
12.36 517.468506
12.38 530.514282
12.40 515.733032
12.42 566.625244
12.44 601.503113
12.46 606.175781
12.48 633.292969
12.50 646.746582
12.52 646.889038
12.54 657.092102
12.56 677.338196
12.58 696.58844
12.60 716.732544
12.62 695.991211
12.64 690.106506
12.66 653.846069
12.68 625.249207
12.70 597.106506
12.72 577.333374
12.74 553.667725
12.76 522.709167
12.78 480.935577
12.80 459.97467
12.82 435.935059
12.84 412.403595
12.86 425.551361
12.88 409.646515
12.90 402.708893
12.92 380.321594
12.94 355.727966
12.96 341.485443
12.98 338.715332
13.00 334.295135
13.02 344.976898
13.04 341.987915
13.06 333.71817
13.08 336.45108
13.10 335.185547
13.12 314.377747
13.14 298.788147
13.16 329.398315
13.18 356.100616
13.20 340.132416
13.22 316.929565
13.24 328.892517
13.26 332.161926
13.28 321.750641
13.30 325.993042
13.32 333.32785
13.34 321.780609
13.36 316.181213
13.38 301.498688
13.40 311.377045
13.42 338.851898
13.44 339.614227
13.46 350.753876
13.48 335.209198
13.50 318.920135
13.52 314.030792
13.54 343.639771
13.56 351.167877
13.58 350.605286
13.60 370.516266
13.62 375.184357
13.64 372.831207
13.66 382.216156
13.68 396.54361
13.70 396.06778
13.72 419.137665
13.74 418.024384
13.76 424.971222
13.78 424.814697
13.80 448.113281
13.82 478.419403
13.84 486.614868
13.86 508.792847
13.88 515.016418
13.90 535.833435
13.92 575.25
13.94 599.025513
13.96 606.921631
13.98 635.26947
14.00 689.584595
14.02 719.070923
14.04 766.076965
14.06 789.122131
14.08 871.396973
14.10 918.192749
14.12 985.270874
14.14 1092.501831
14.16 1158.495728
14.18 1238.560181
14.20 1312.461426
14.22 1415.11731
14.24 1600.885742
14.26 1736.189697
14.28 1837.340942
14.30 1978.847656
14.32 2107.532227
14.34 2256.10791
14.36 2418.152588
14.38 2531.978027
14.40 2601.822021
14.42 2699.946045
14.44 2741.12793
14.46 2751.381104
14.48 2708.486328
14.50 2628.473145
14.52 2499.734131
14.54 2362.254639
14.56 2250.679443
14.58 2005.955811
14.60 1815.300781
14.62 1652.127197
14.64 1511.99292
14.66 1342.340576
14.68 1194.805054
14.70 1068.349854
14.72 960.211487
14.74 888.581848
14.76 823.453308
14.78 739.037659
14.80 696.405212
14.82 662.127625
14.84 627.847656
14.86 591.020264
14.88 556.230164
14.90 537.132629
14.92 502.309174
14.94 504.246704
14.96 500.794128
14.98 480.283325
15.00 471.219055
15.02 469.253265
15.04 455.842926
15.06 429.819763
15.08 437.149994
15.10 428.074127
15.12 405.954285
15.14 403.199677
15.16 387.84671
15.18 382.112671
15.20 386.652649
15.22 393.763702
15.24 398.72702
15.26 380.368286
15.28 363.879425
15.30 357.025177
15.32 366.729187
15.34 346.085815
15.36 350.368256
15.38 338.623657
15.40 354.731842
15.42 356.237946
15.44 368.390289
15.46 363.381317
15.48 360.131409
15.50 361.877228
15.52 353.481873
15.54 361.52887
15.56 358.678833
15.58 346.163086
15.60 342.143738
15.62 328.0383
15.64 334.297516
15.66 351.078094
15.68 346.612244
15.70 331.997314
15.72 367.714691
15.74 372.244415
15.76 364.169617
15.78 360.546875
15.80 357.691498
15.82 354.970093
15.84 352.365234
15.86 347.56543
15.88 354.316467
15.90 353.093384
15.92 344.375458
15.94 368.194946
15.96 370.540222
15.98 354.738068
16.00 336.265228
16.02 356.698578
16.04 344.503845
16.06 341.104767
16.08 353.294678
16.10 349.590698
16.12 337.59201
16.14 348.354675
16.16 365.178131
16.18 360.506714
16.20 341.2854
16.22 347.642029
16.24 343.416565
16.26 349.088562
16.28 348.063538
16.30 350.931946
16.32 356.344025
16.34 363.99939
16.36 362.023041
16.38 352.006805
16.40 346.489624
16.42 338.009766
16.44 356.18689
16.46 358.661407
16.48 341.082977
16.50 346.537689
16.52 348.368561
16.54 366.373993
16.56 361.848389
16.58 366.623444
16.60 368.748322
16.62 338.294189
16.64 353.439453
16.66 358.750763
16.68 354.536346
16.70 352.052856
16.72 360.344238
16.74 361.630005
16.76 367.410797
16.78 378.273346
16.80 376.978516
16.82 366.5466
16.84 347.565033
16.86 369.736664
16.88 360.635986
16.90 391.305145
16.92 392.583038
16.94 375.210327
16.96 355.683167
16.98 372.709778
17.00 352.789246
17.02 358.223938
17.04 377.4841
17.06 379.492981
17.08 366.963531
17.10 361.654572
17.12 378.29361
17.14 366.311066
17.16 374.430878
17.18 384.897552
17.20 397.405762
17.22 382.943481
17.24 374.293304
17.26 380.1875
17.28 379.976593
17.30 371.075012
17.32 390.465546
17.34 383.99118
17.36 374.153046
17.38 378.931
17.40 394.591278
17.42 377.172211
17.44 378.223175
17.46 387.273773
17.48 389.52298
17.50 407.659546
17.52 386.944458
17.54 373.820648
17.56 388.643646
17.58 410.081818
17.60 395.337677
17.62 392.145508
17.64 384.616089
17.66 401.892761
17.68 368.080231
17.70 370.151825
17.72 379.256836
17.74 397.732025
17.76 403.90683
17.78 409.371399
17.80 407.920471
17.82 410.084503
17.84 390.411255
17.86 398.602081
17.88 402.500732
17.90 395.32605
17.92 400.586182
17.94 403.615936
17.96 400.274567
17.98 393.064423
18.00 411.78598
18.02 416.905304
18.04 406.314728
18.06 405.815582
18.08 407.36087
18.10 392.811768
18.12 390.93988
18.14 403.893646
18.16 410.12973
18.18 419.310089
18.20 430.663483
18.22 423.988495
18.24 425.36438
18.26 413.952881
18.28 418.178406
18.30 436.363281
18.32 425.256165
18.34 432.057068
18.36 438.795319
18.38 421.413605
18.40 427.331329
18.42 418.336151
18.44 416.034546
18.46 421.631165
18.48 420.969147
18.50 429.161621
18.52 432.185486
18.54 410.01474
18.56 410.717682
18.58 407.150391
18.60 419.008392
18.62 431.024902
18.64 447.51532
18.66 439.403351
18.68 435.611328
18.70 435.226776
18.72 440.468262
18.74 440.432831
18.76 424.348816
18.78 417.227814
18.80 446.388916
18.82 437.18866
18.84 437.893311
18.86 436.619293
18.88 448.041443
18.90 457.079681
18.92 444.851654
18.94 449.160583
18.96 462.514557
18.98 468.167145
19.00 454.713409
19.02 463.488831
19.04 479.975098
19.06 480.687195
19.08 469.219635
19.10 469.906525
19.12 461.044434
19.14 437.856659
19.16 458.473114
19.18 473.707489
19.20 464.93512
19.22 456.923523
19.24 467.788116
19.26 479.539429
19.28 474.007172
19.30 442.965118
19.32 464.669647
19.34 473.458313
19.36 464.196381
19.38 455.494598
19.40 474.272491
19.42 491.239471
19.44 480.441895
19.46 467.483276
19.48 491.668854
19.50 490.660919
19.52 472.913757
19.54 481.742615
19.56 463.503113
19.58 486.029846
19.60 478.051483
19.62 484.754089
19.64 478.759064
19.66 472.908661
19.68 476.671967
19.70 485.808319
19.72 481.555359
19.74 462.595612
19.76 470.822632
19.78 476.396027
19.80 499.58728
19.82 505.809021
19.84 498.028107
19.86 491.006836
19.88 508.224884
19.90 486.761169
19.92 485.484924
19.94 497.65744
19.96 497.159515
19.98 489.694977
20.00 496.67337
20.02 508.319275
20.04 500.100067
20.06 515.002014
20.08 495.531189
20.10 484.744385
20.12 502.003601
20.14 522.855347
20.16 513.556702
20.18 505.677216
20.20 493.878784
20.22 495.505066
20.24 508.356659
20.26 512.926086
20.28 528.748596
20.30 514.525391
20.32 503.348816
20.34 508.765472
20.36 512.822815
20.38 497.645203
20.40 509.662384
20.42 515.763489
20.44 514.90094
20.46 517.085022
20.48 526.772034
20.50 548.553467
20.52 537.911255
20.54 541.666321
20.56 517.47467
20.58 522.950745
20.60 537.14386
20.62 533.475586
20.64 542.227112
20.66 522.097839
20.68 527.73822
20.70 535.329895
20.72 536.373169
20.74 541.247986
20.76 546.469788
20.78 534.738464
20.80 533.834351
20.82 528.533752
20.84 549.042969
20.86 546.78717
20.88 552.570374
20.90 564.955872
20.92 533.060059
20.94 524.234497
20.96 531.86145
20.98 536.988281
21.00 550.978455
21.02 544.415833
21.04 569.0802
21.06 567.676941
21.08 549.973328
21.10 541.189148
21.12 536.940796
21.14 540.351868
21.16 556.104553
21.18 552.033203
21.20 555.394653
21.22 565.286499
21.24 563.332275
21.26 551.115784
21.28 549.252441
21.30 552.299072
21.32 565.298584
21.34 573.926697
21.36 592.399719
21.38 584.243713
21.40 591.406006
21.42 578.823486
21.44 559.676147
21.46 573.399536
21.48 594.884216
21.50 600.034973
21.52 573.091431
21.54 580.453613
21.56 582.795288
21.58 576.234619
21.60 580.431213
21.62 582.397339
21.64 565.160706
21.66 583.324402
21.68 567.727417
21.70 569.538269
21.72 577.664429
21.74 573.30481
21.76 569.470337
21.78 583.711975
21.80 572.120178
21.82 574.010071
21.84 593.01001
21.86 612.907043
21.88 583.664185
21.90 576.635071
21.92 584.417725
21.94 609.749146
21.96 616.936707
21.98 596.422974
22.00 579.096191
22.02 585.982788
22.04 596.00116
22.06 601.359619
22.08 594.361328
22.10 595.736389
22.12 601.454163
22.14 591.013855
22.16 596.239319
22.18 610.421021
22.20 593.788513
22.22 580.437744
22.24 586.635559
22.26 607.065552
22.28 616.016418
22.30 623.619263
22.32 617.945801
22.34 616.325928
22.36 604.796326
22.38 612.182373
22.40 637.562134
22.42 603.463745
22.44 599.761292
22.46 584.505066
22.48 598.22522
22.50 635.651917
22.52 646.528381
22.54 627.993896
22.56 631.734985
22.58 617.496521
22.60 618.659485
22.62 635.748169
22.64 626.385376
22.66 610.019043
22.68 602.237915
22.70 602.801147
22.72 616.785278
22.74 628.263428
22.76 629.358215
22.78 623.503479
22.80 621.535583
22.82 627.203674
22.84 614.858521
22.86 606.790955
22.88 611.363464
22.90 609.121521
22.92 624.327271
22.94 632.42041
22.96 627.568115
22.98 623.436279
23.00 623.281067
23.02 620.041809
23.04 630.209412
23.06 633.897278
23.08 633.095398
23.10 647.996216
23.12 648.446411
23.14 646.227234
23.16 652.948303
23.18 663.258179
23.20 661.581726
23.22 636.94043
23.24 648.212158
23.26 643.875
23.28 630.831482
23.30 623.450806
23.32 631.819153
23.34 644.21582
23.36 629.666138
23.38 618.889893
23.40 651.819824
23.42 642.212646
23.44 630.86554
23.46 640.31134
23.48 631.503113
23.50 642.731934
23.52 646.725342
23.54 659.1203
23.56 657.832153
23.58 648.818665
23.60 648.492126
23.62 649.794739
23.64 655.698181
23.66 648.97467
23.68 638.648315
23.70 654.975159
23.72 670.647217
23.74 680.347656
23.76 682.533691
23.78 668.988098
23.80 648.102112
23.82 652.864197
23.84 662.268188
23.86 672.88092
23.88 674.910461
23.90 661.760864
23.92 645.54541
23.94 634.062866
23.96 656.991821
23.98 666.488892
24.00 644.796387
24.02 645.804932
24.04 652.902039
24.06 669.692566
24.08 642.261414
24.10 658.545593
24.12 671.245056
24.14 659.585632
24.16 659.670593
24.18 658.809387
24.20 655.440552
24.22 655.793823
24.24 646.641541
24.26 653.862183
24.28 665.34906
24.30 675.033752
24.32 675.372864
24.34 673.673035
24.36 657.731934
24.38 666.037537
24.40 682.79834
24.42 680.842163
24.44 672.2948
24.46 664.444946
24.48 662.230164
24.50 651.778015
24.52 666.741882
24.54 677.069214
24.56 675.610718
24.58 675.75
24.60 657.391235
24.62 668.630005
24.64 659.529602
24.66 669.088623
24.68 679.144714
24.70 668.078125
24.72 662.367737
24.74 659.646851
24.76 666.36676
24.78 661.284302
24.80 637.229736
24.82 644.403015
24.84 655.18689
24.86 661.429138
24.88 684.81958
24.90 664.101318
24.92 659.855042
24.94 679.62677
24.96 666.52356
24.98 682.233459
25.00 676.819336
25.02 674.807617
25.04 665.545715
25.06 665.125671
25.08 659.296387
25.10 668.686035
25.12 667.565674
25.14 677.019958
25.16 671.289368
25.18 681.735901
25.20 700.68512
25.22 709.103699
25.24 700.241638
25.26 703.832214
25.28 715.934937
25.30 694.481201
25.32 669.068237
25.34 677.492188
25.36 693.697693
25.38 694.079224
25.40 674.0672
25.42 675.673584
25.44 670.433838
25.46 681.02124
25.48 697.50177
25.50 680.443237
25.52 660.507996
25.54 673.946716
25.56 673.555176
25.58 690.81665
25.60 693.760437
25.62 663.088623
25.64 659.427307
25.66 701.574768
25.68 711.280273
25.70 672.045837
25.72 666.62738
25.74 667.29895
25.76 657.810242
25.78 688.876099
25.80 688.196106
25.82 675.121582
25.84 664.782837
25.86 652.493408
25.88 663.05365
25.90 667.532043
25.92 669.5047
25.94 661.445129
25.96 674.694702
25.98 693.595276
26.00 690.556641
26.02 676.997864
26.04 682.305481
26.06 667.946777
26.08 661.883545
26.10 654.557495
26.12 667.579346
26.14 674.28479
26.16 671.469299
26.18 675.385498
26.20 687.252319
26.22 691.575256
26.24 697.819031
26.26 680.106506
26.28 679.183411
26.30 671.362
26.32 679.39502
26.34 683.325867
26.36 681.464966
26.38 680.443726
26.40 667.632813
26.42 648.719177
26.44 659.321777
26.46 689.142029
26.48 702.726929
26.50 678.318176
26.52 682.593506
26.54 696.636536
26.56 702.297974
26.58 663.412231
26.60 676.241211
26.62 667.234436
26.64 664.107727
26.66 674.43689
26.68 656.357056
26.70 661.581421
26.72 644.288513
26.74 667.689636
26.76 681.531006
26.78 665.167969
26.80 673.288635
26.82 662.337891
26.84 679.285156
26.86 680.940369
26.88 669.226013
26.90 657.99408
26.92 656.042908
26.94 655.314026
26.96 650.52533
26.98 654.091064
27.00 666.461182
27.02 680.061768
27.04 662.622375
27.06 650.533936
27.08 658.123352
27.10 666.500427
27.12 669.744141
27.14 662.460449
27.16 658.786499
27.18 656.122253
27.20 661.09729
27.22 698.042786
27.24 666.071716
27.26 664.647522
27.28 669.434326
27.30 690.33551
27.32 691.390808
27.34 670.999573
27.36 672.958252
27.38 659.49646
27.40 659.746155
27.42 665.26062
27.44 682.870605
27.46 661.674561
27.48 649.983948
27.50 669.593811
27.52 685.08905
27.54 674.238098
27.56 681.641113
27.58 663.4328
27.60 664.424072
27.62 677.956787
27.64 678.503845
27.66 672.889343
27.68 644.527405
27.70 649.817444
27.72 673.690613
27.74 690.866394
27.76 688.074463
27.78 668.001953
27.80 685.020447
27.82 693.701782
27.84 683.897339
27.86 679.340759
27.88 705.749207
27.90 700.103333
27.92 693.125183
27.94 677.112976
27.96 675.088257
27.98 681.887329
28.00 692.122314
28.02 684.505188
28.04 694.965759
28.06 693.756714
28.08 678.925476
28.10 692.710815
28.12 699.807678
28.14 694.836121
28.16 691.440186
28.18 703.811401
28.20 702.251587
28.22 682.822632
28.24 690.852783
28.26 689.151367
28.28 682.776062
28.30 702.768921
28.32 694.149048
28.34 700.559937
28.36 696.614075
28.38 691.574097
28.40 687.77417
28.42 705.961487
28.44 717.581848
28.46 707.019165
28.48 709.674744
28.50 725.145264
28.52 708.252808
28.54 693.62146
28.56 703.889343
28.58 734.285889
28.60 756.584229
28.62 736.9776
28.64 733.0802
28.66 761.18158
28.68 777.808838
28.70 789.220459
28.72 824.990173
28.74 811.352173
28.76 830.135559
28.78 872.46875
28.80 893.535767
28.82 908.597412
28.84 957.462463
28.86 987.841614
28.88 1020.005005
28.90 1069.222778
28.92 1162.922241
28.94 1213.665894
28.96 1275.150879
28.98 1352.494751
29.00 1418.587891
29.02 1486.330322
29.04 1579.205078
29.06 1660.78479
29.08 1708.438599
29.10 1792.87793
29.12 1813.243408
29.14 1815.339233
29.16 1845.632324
29.18 1832.773315
29.20 1765.717163
29.22 1737.43103
29.24 1705.055542
29.26 1656.702148
29.28 1596.072754
29.30 1525.97937
29.32 1398.454712
29.34 1335.516357
29.36 1294.235596
29.38 1247.244019
29.40 1172.063354
29.42 1122.812134
29.44 1065.039551
29.46 1002.390564
29.48 976.110046
29.50 958.884338
29.52 916.35144
29.54 878.261841
29.56 854.58197
29.58 834.336853
29.60 833.32312
29.62 820.807251
29.64 812.094421
29.66 764.206421
29.68 769.996399
29.70 751.605286
29.72 751.312317
29.74 734.014832
29.76 723.49176
29.78 732.095215
29.80 726.835266
29.82 725.409241
29.84 698.533508
29.86 704.917236
29.88 694.224365
29.90 696.221252
29.92 692.231995
29.94 680.528137
29.96 690.154724
29.98 694.462341
30.00 689.35498
30.02 681.34967
30.04 650.59613
30.06 667.8797
30.08 675.700806
30.10 670.467041
30.12 650.251953
30.14 659.526672
30.16 661.617004
30.18 660.463379
30.20 650.439453
30.22 647.6698
30.24 662.47052
30.26 651.541626
30.28 650.809937
30.30 662.454407
30.32 652.672607
30.34 651.748413
30.36 647.036499
30.38 639.700195
30.40 632.116272
30.42 640.075867
30.44 643.554871
30.46 640.574097
30.48 644.797424
30.50 627.341187
30.52 617.796021
30.54 609.084045
30.56 624.031982
30.58 654.158752
30.60 635.246155
30.62 618.252197
30.64 599.804565
30.66 597.766357
30.68 592.611389
30.70 618.349304
30.72 614.780579
30.74 606.432739
30.76 596.220459
30.78 597.978577
30.80 611.863831
30.82 627.715637
30.84 602.602539
30.86 611.357605
30.88 627.708252
30.90 623.546021
30.92 612.697754
30.94 601.030579
30.96 603.884216
30.98 596.109192
31.00 593.95459
31.02 598.030823
31.04 604.046082
31.06 626.304749
31.08 616.356384
31.10 601.901611
31.12 597.388306
31.14 598.397949
31.16 607.528076
31.18 590.88324
31.20 596.36676
31.22 591.48999
31.24 592.075562
31.26 578.735107
31.28 589.12677
31.30 603.109741
31.32 610.370483
31.34 613.31604
31.36 599.130188
31.38 579.991882
31.40 582.269653
31.42 595.304321
31.44 586.724548
31.46 581.720215
31.48 591.784241
31.50 597.222351
31.52 583.756531
31.54 577.872864
31.56 589.10199
31.58 584.949463
31.60 586.107483
31.62 557.157776
31.64 570.684082
31.66 578.403992
31.68 584.554688
31.70 586.499023
31.72 575.971497
31.74 570.922668
31.76 583.824097
31.78 576.051025
31.80 590.598877
31.82 590.381104
31.84 580.418762
31.86 586.033569
31.88 571.853638
31.90 580.302368
31.92 586.390808
31.94 592.622559
31.96 576.032227
31.98 575.153931
32.00 586.637024
32.02 591.395691
32.04 600.211914
32.06 596.05719
32.08 581.297302
32.10 583.837891
32.12 576.811462
32.14 554.80188
32.16 571.06366
32.18 574.676392
32.20 586.208984
32.22 572.707703
32.24 575.987
32.26 589.911499
32.28 577.513
32.30 584.857117
32.32 586.119019
32.34 589.856567
32.36 585.952271
32.38 594.307007
32.40 595.198669
32.42 590.62616
32.44 596.480713
32.46 587.087097
32.48 586.211792
32.50 583.071167
32.52 578.801758
32.54 590.811035
32.56 594.303406
32.58 605.710327
32.60 611.476685
32.62 600.433105
32.64 595.822693
32.66 588.222412
32.68 596.615051
32.70 582.391174
32.72 586.602234
32.74 592.177002
32.76 590.341187
32.78 560.029907
32.80 560.426208
32.82 566.782043
32.84 581.987915
32.86 568.18512
32.88 581.898376
32.90 574.058228
32.92 566.161438
32.94 544.359375
32.96 552.679871
32.98 545.271179
33.00 553.424316
33.02 544.369873
33.04 536.963989
33.06 555.581604
33.08 548.143555
33.10 546.696167
33.12 535.610779
33.14 539.360901
33.16 533.737183
33.18 528.10553
33.20 532.546753
33.22 534.187439
33.24 542.60376
33.26 546.782654
33.28 541.153625
33.30 540.1875
33.32 531.013611
33.34 525.584961
33.36 521.61084
33.38 522.126099
33.40 524.718811
33.42 509.093018
33.44 509.886017
33.46 521.875916
33.48 540.520569
33.50 549.285767
33.52 542.826782
33.54 529.050476
33.56 516.139771
33.58 524.015442
33.60 531.546326
33.62 539.755188
33.64 531.691223
33.66 539.
33.68 534.307861
33.70 510.885498
33.72 497.493317
33.74 503.249237
33.76 508.709778
33.78 510.310516
33.80 496.789948
33.82 506.032288
33.84 510.528748
33.86 507.375977
33.88 511.739594
33.90 510.971863
33.92 496.234955
33.94 493.425262
33.96 493.385895
33.98 490.933716
34.00 489.101501
34.02 491.09494
34.04 497.40329
34.06 499.096436
34.08 506.303589
34.10 498.606079
34.12 483.028198
34.14 490.044067
34.16 496.718018
34.18 498.012726
34.20 498.405884
34.22 488.961578
34.24 498.933533
34.26 513.878479
34.28 502.093811
34.30 486.88269
34.32 479.824554
34.34 486.119537
34.36 485.19809
34.38 467.168518
34.40 476.20932
34.42 473.114288
34.44 489.79776
34.46 508.229736
34.48 488.789185
34.50 477.793884
34.52 492.413269
34.54 480.393829
34.56 482.265686
34.58 488.086212
34.60 476.593597
34.62 470.917694
34.64 492.482269
34.66 493.534515
34.68 489.955994
34.70 483.300659
34.72 475.058502
34.74 496.724884
34.76 490.639191
34.78 487.312775
34.80 484.318512
34.82 483.590057
34.84 495.138916
34.86 477.754395
34.88 488.86554
34.90 475.16394
34.92 471.265869
34.94 473.481171
34.96 468.597321
34.98 463.10553
35.00 481.636108
35.02 464.712799
35.04 470.475433
35.06 463.458618
35.08 469.787567
35.10 465.132111
35.12 458.120148
35.14 445.349487
35.16 460.849243
35.18 463.589752
35.20 460.592529
35.22 449.496826
35.24 451.75296
35.26 448.031769
35.28 447.626556
35.30 456.399628
35.32 446.716278
35.34 454.244568
35.36 459.967163
35.38 435.496246
35.40 449.38736
35.42 468.92392
35.44 460.980042
35.46 444.627289
35.48 444.099365
35.50 442.902649
35.52 443.429474
35.54 437.439148
35.56 445.796906
35.58 447.046539
35.60 435.270691
35.62 446.55423
35.64 451.43103
35.66 455.746796
35.68 440.547394
35.70 438.678131
35.72 449.39566
35.74 437.544312
35.76 436.04303
35.78 445.482147
35.80 447.054932
35.82 435.751526
35.84 425.469391
35.86 428.142487
35.88 425.715363
35.90 422.684814
35.92 423.454071
35.94 430.175568
35.96 430.950897
35.98 432.14621
36.00 427.399536
36.02 425.177368
36.04 422.69101
36.06 409.281311
36.08 419.668884
36.10 428.414764
36.12 437.752075
36.14 433.378723
36.16 409.844818
36.18 416.827637
36.20 427.912292
36.22 411.015625
36.24 413.130524
36.26 403.218506
36.28 418.3638
36.30 423.954987
36.32 412.251038
36.34 418.698517
36.36 420.877106
36.38 404.148651
36.40 404.422394
36.42 398.630249
36.44 415.265106
36.46 429.052887
36.48 431.414032
36.50 421.248474
36.52 409.231659
36.54 416.931549
36.56 410.013611
36.58 410.29837
36.60 409.789948
36.62 409.729828
36.64 399.027344
36.66 399.325714
36.68 403.92981
36.70 409.089355
36.72 411.34787
36.74 402.024017
36.76 403.038208
36.78 398.372284
36.80 381.206055
36.82 399.74707
36.84 398.482483
36.86 397.698151
36.88 383.779572
36.90 388.182709
36.92 391.252045
36.94 407.709717
36.96 402.699127
36.98 397.078461
37.00 401.992279
37.02 393.850616
37.04 402.431213
37.06 404.352478
37.08 387.914795
37.10 383.310699
37.12 376.949951
37.14 372.649017
37.16 380.882446
37.18 383.603729
37.20 379.073547
37.22 394.777008
37.24 398.045441
37.26 386.089813
37.28 380.423187
37.30 374.879211
37.32 376.266418
37.34 378.909668
37.36 383.474915
37.38 384.914001
37.40 386.892151
37.42 378.461609
37.44 372.700592
37.46 380.455261
37.48 390.872314
37.50 383.621826
37.52 382.107483
37.54 373.408386
37.56 376.872772
37.58 391.44104
37.60 381.81192
37.62 381.727783
37.64 381.077148
37.66 382.877808
37.68 379.73941
37.70 383.627258
37.72 375.636627
37.74 376.314819
37.76 375.7276
37.78 372.224121
37.80 372.307495
37.82 375.220001
37.84 380.26236
37.86 375.792084
37.88 372.638031
37.90 372.608978
37.92 369.679047
37.94 374.598083
37.96 366.14502
37.98 360.226074
38.00 372.395996
38.02 375.043793
38.04 374.690582
38.06 375.572174
38.08 371.606445
38.10 386.20993
38.12 379.658875
38.14 375.249176
38.16 379.604675
38.18 375.067993
38.20 385.951691
38.22 386.280487
38.24 389.648285
38.26 376.747986
38.28 376.857941
38.30 375.901398
38.32 381.510345
38.34 372.673004
38.36 393.591583
38.38 386.957977
38.40 382.72641
38.42 377.53183
38.44 380.577057
38.46 384.765289
38.48 393.037598
38.50 389.861603
38.52 390.806488
38.54 395.92511
38.56 399.249298
38.58 392.183746
38.60 388.081116
38.62 380.948395
38.64 389.571899
38.66 378.07785
38.68 377.71521
38.70 364.190796
38.72 372.305786
38.74 372.621582
38.76 377.448578
38.78 372.489899
38.80 364.930115
38.82 369.101501
38.84 353.261597
38.86 360.374969
38.88 352.074738
38.90 353.858398
38.92 372.47876
38.94 365.191101
38.96 359.282532
38.98 362.21106
39.00 367.993744
39.02 351.577667
39.04 359.305847
39.06 376.029663
39.08 370.139923
39.10 361.710083
39.12 355.518738
39.14 352.833282
39.16 356.519897
39.18 357.061157
39.20 362.775787
39.22 349.171356
39.24 349.860992
39.26 355.952759
39.28 358.702179
39.30 359.364044
39.32 352.345642
39.34 345.864807
39.36 345.538757
39.38 349.712585
39.40 350.566315
39.42 338.94577
39.44 348.871155
39.46 354.525757
39.48 367.835052
39.50 355.20816
39.52 344.860321
39.54 355.297791
39.56 354.521912
39.58 355.570679
39.60 351.317749
39.62 350.861572
39.64 339.590729
39.66 347.997559
39.68 352.224182
39.70 351.466278
39.72 341.66156
39.74 343.527527
39.76 346.842194
39.78 346.478363
39.80 344.112305
39.82 335.877014
39.84 337.548859
39.86 338.731079
39.88 341.686829
39.90 341.921234
39.92 344.868073
39.94 353.476624
39.96 339.667358
39.98 342.379456
40.00 342.146973
