!@!!GADDS PLOTSO FILE: Chi integration type
!@!!Title/SampleName: ML_MAPbX3
!@!!User: NREL
!@!!Site: NREL SERF C211; SN 2510
!@!!Frame: 081022_MLProject_000_013.gfrm
!@!!Wavelengths    1.54184   1.54056   1.54439
!@!!Frame angles: 2Theta: 28.000 Omega: 5.000 Phi: 0.000 Chi: 90.000
!@!!Integration range: 2Theta: 10.000 to 40.000  Gamma: -135.000 to -110.000
!@!!Integration method: bin normalized
!@!N
!@!SS
!@!M
!@!L 0.0 0.0 0.0 0.0
!@!XDegrees
!@!YCounts
10.00 120.128662
10.02 117.368324
10.04 124.458374
10.06 129.326355
10.08 138.634247
10.10 133.102936
10.12 126.536858
10.14 132.337006
10.16 132.931808
10.18 131.212906
10.20 141.875504
10.22 143.297546
10.24 136.399277
10.26 141.937653
10.28 143.584534
10.30 140.881027
10.32 129.227081
10.34 143.062866
10.36 144.38028
10.38 126.265869
10.40 139.473602
10.42 131.93512
10.44 148.954315
10.46 153.548569
10.48 149.889465
10.50 142.392624
10.52 154.181519
10.54 159.169159
10.56 138.297684
10.58 128.57222
10.60 137.957916
10.62 147.386566
10.64 150.183289
10.66 159.0522
10.68 170.887817
10.70 171.471252
10.72 162.61795
10.74 164.572861
10.76 154.493484
10.78 152.592026
10.80 158.506882
10.82 155.574524
10.84 163.239883
10.86 158.108429
10.88 164.281342
10.90 156.445755
10.92 158.654007
10.94 174.396622
10.96 175.925873
10.98 162.486542
11.00 175.736053
11.02 168.578217
11.04 164.989426
11.06 170.010376
11.08 166.283157
11.10 164.245331
11.12 156.951981
11.14 172.329559
11.16 166.929993
11.18 171.972458
11.20 173.085587
11.22 172.885773
11.24 171.915207
11.26 172.973862
11.28 164.025406
11.30 170.980164
11.32 166.688446
11.34 168.958801
11.36 162.441803
11.38 169.859756
11.40 178.938324
11.42 193.20607
11.44 199.154419
11.46 193.666672
11.48 188.557373
11.50 168.467041
11.52 174.212463
11.54 181.706177
11.56 185.791977
11.58 182.73288
11.60 174.340622
11.62 179.891205
11.64 184.30452
11.66 182.741913
11.68 183.732666
11.70 169.856949
11.72 180.113724
11.74 179.932831
11.76 188.30246
11.78 200.268982
11.80 186.531784
11.82 189.656876
11.84 186.796829
11.86 207.294846
11.88 197.00975
11.90 174.844421
11.92 185.021927
11.94 187.54837
11.96 198.616287
11.98 193.264511
12.00 189.640106
12.02 179.153915
12.04 186.488739
12.06 191.804611
12.08 183.296967
12.10 201.959946
12.12 213.307388
12.14 206.46701
12.16 209.841599
12.18 187.724014
12.20 184.744049
12.22 183.681732
12.24 186.224304
12.26 208.713791
12.28 203.398361
12.30 200.903595
12.32 208.848633
12.34 221.056686
12.36 223.210495
12.38 208.823212
12.40 194.665314
12.42 216.844803
12.44 215.354492
12.46 214.89975
12.48 209.340775
12.50 217.933167
12.52 216.276276
12.54 215.489639
12.56 192.923447
12.58 203.313629
12.60 217.453369
12.62 211.372299
12.64 215.776184
12.66 214.164352
12.68 213.520233
12.70 207.003708
12.72 211.760773
12.74 209.967773
12.76 213.124069
12.78 205.31427
12.80 198.953583
12.82 203.453156
12.84 194.591751
12.86 199.617966
12.88 235.392654
12.90 209.156754
12.92 205.959717
12.94 207.072067
12.96 219.675293
12.98 219.985855
13.00 234.012375
13.02 214.180679
13.04 228.777542
13.06 229.408905
13.08 217.883911
13.10 223.6138
13.12 235.563049
13.14 224.797333
13.16 217.553909
13.18 217.876251
13.20 228.392944
13.22 230.113419
13.24 213.519516
13.26 205.975327
13.28 209.737579
13.30 225.584671
13.32 224.709198
13.34 218.29274
13.36 214.835861
13.38 218.645554
13.40 228.310242
13.42 237.232452
13.44 227.721542
13.46 219.237762
13.48 216.794907
13.50 215.756226
13.52 220.67894
13.54 230.595139
13.56 215.556076
13.58 213.519135
13.60 221.303299
13.62 214.427994
13.64 211.234329
13.66 205.730331
13.68 218.094284
13.70 231.480042
13.72 236.686066
13.74 237.889221
13.76 243.6987
13.78 235.530197
13.80 231.672363
13.82 216.815002
13.84 224.849747
13.86 225.136063
13.88 229.436081
13.90 237.507736
13.92 248.052719
13.94 240.441299
13.96 232.249359
13.98 228.672028
14.00 219.3797
14.02 229.457123
14.04 235.127655
14.06 230.017975
14.08 226.644196
14.10 232.00206
14.12 238.545151
14.14 255.021713
14.16 243.618118
14.18 229.411713
14.20 227.724472
14.22 243.139221
14.24 240.070251
14.26 251.241058
14.28 251.810257
14.30 241.096497
14.32 235.407288
14.34 243.585968
14.36 263.358643
14.38 253.836533
14.40 257.223999
14.42 252.154312
14.44 234.988266
14.46 246.40332
14.48 251.852997
14.50 245.450165
14.52 243.199326
14.54 255.287079
14.56 267.681274
14.58 265.054749
14.60 262.004425
14.62 264.085632
14.64 252.754562
14.66 252.873718
14.68 259.15213
14.70 260.54187
14.72 267.153809
14.74 271.190704
14.76 269.4534
14.78 257.853577
14.80 252.965012
14.82 261.652374
14.84 264.674347
14.86 256.223694
14.88 263.61554
14.90 261.649231
14.92 252.624542
14.94 241.771194
14.96 239.035049
14.98 267.646088
15.00 257.836273
15.02 251.703613
15.04 254.466187
15.06 250.567551
15.08 252.80423
15.10 252.145569
15.12 255.941818
15.14 254.779602
15.16 255.280228
15.18 256.900604
15.20 265.283081
15.22 260.22934
15.24 250.12439
15.26 260.400665
15.28 272.304169
15.30 259.984985
15.32 256.459778
15.34 253.507126
15.36 252.253433
15.38 262.117523
15.40 252.851639
15.42 255.255524
15.44 266.871826
15.46 258.640289
15.48 257.538361
15.50 263.008026
15.52 263.249115
15.54 264.927948
15.56 258.390472
15.58 257.422485
15.60 265.058441
15.62 270.095734
15.64 264.329285
15.66 248.778595
15.68 252.96759
15.70 243.074982
15.72 259.4021
15.74 268.574432
15.76 259.982758
15.78 255.087479
15.80 267.81897
15.82 273.376129
15.84 249.016083
15.86 256.48999
15.88 273.379028
15.90 276.46579
15.92 260.253723
15.94 249.713364
15.96 256.569214
15.98 263.865265
16.00 261.462646
16.02 261.883301
16.04 261.443665
16.06 263.200745
16.08 261.9888
16.10 261.856445
16.12 282.441803
16.14 296.752869
16.16 286.781158
16.18 279.404327
16.20 278.90448
16.22 271.104645
16.24 271.210144
16.26 266.836487
16.28 266.464966
16.30 269.025269
16.32 272.304871
16.34 264.351471
16.36 278.677582
16.38 280.074677
16.40 281.88913
16.42 286.200897
16.44 270.645416
16.46 262.454803
16.48 272.858612
16.50 274.251038
16.52 273.566345
16.54 277.093018
16.56 277.71756
16.58 270.127533
16.60 282.247498
16.62 287.759888
16.64 296.242126
16.66 284.92688
16.68 290.167694
16.70 289.960205
16.72 281.224762
16.74 278.233246
16.76 269.472168
16.78 281.520477
16.80 278.348145
16.82 294.791656
16.84 288.037048
16.86 269.859344
16.88 265.306152
16.90 274.994415
16.92 281.947327
16.94 284.713837
16.96 287.479156
16.98 281.025665
17.00 290.143677
17.02 297.522705
17.04 303.971161
17.06 297.856262
17.08 299.910248
17.10 311.478912
17.12 292.63443
17.14 299.677643
17.16 304.466949
17.18 289.663788
17.20 286.243835
17.22 298.363373
17.24 299.293243
17.26 300.921021
17.28 291.777496
17.30 288.464813
17.32 293.324432
17.34 298.126221
17.36 298.750122
17.38 295.583282
17.40 296.372986
17.42 311.647247
17.44 314.067749
17.46 311.904968
17.48 313.442322
17.50 318.689423
17.52 311.351013
17.54 310.64035
17.56 298.064484
17.58 310.124023
17.60 322.229675
17.62 311.131104
17.64 312.496368
17.66 314.786285
17.68 304.316956
17.70 318.55545
17.72 321.478271
17.74 311.308228
17.76 306.876373
17.78 319.12558
17.80 309.774506
17.82 316.19989
17.84 316.04007
17.86 322.79364
17.88 330.62207
17.90 328.630035
17.92 319.405975
17.94 317.122559
17.96 309.060822
17.98 304.255615
18.00 300.566132
18.02 313.607849
18.04 310.941132
18.06 324.682068
18.08 322.604004
18.10 338.291138
18.12 321.137177
18.14 320.936798
18.16 328.512726
18.18 326.922302
18.20 342.460693
18.22 334.506348
18.24 327.645203
18.26 323.582977
18.28 322.420471
18.30 314.207153
18.32 305.492188
18.34 309.992554
18.36 323.899445
18.38 323.200714
18.40 320.536896
18.42 325.30603
18.44 323.432953
18.46 318.972382
18.48 334.985077
18.50 345.514923
18.52 336.456879
18.54 341.640594
18.56 345.593323
18.58 337.703766
18.60 324.123077
18.62 324.683594
18.64 343.093567
18.66 351.240509
18.68 356.227509
18.70 336.953186
18.72 350.700195
18.74 358.064453
18.76 354.251923
18.78 348.792969
18.80 353.710785
18.82 347.428558
18.84 338.883026
18.86 331.861481
18.88 328.521027
18.90 328.729401
18.92 351.950378
18.94 354.112183
18.96 341.029968
18.98 348.768097
19.00 335.412048
19.02 337.322083
19.04 341.487854
19.06 352.650848
19.08 354.428528
19.10 349.97525
19.12 346.02301
19.14 353.262421
19.16 361.997345
19.18 362.402924
19.20 359.189636
19.22 353.115479
19.24 362.565155
19.26 359.606659
19.28 355.924042
19.30 353.574707
19.32 356.045105
19.34 353.74942
19.36 354.24942
19.38 376.77182
19.40 372.487701
19.42 365.991364
19.44 362.915314
19.46 362.424133
19.48 357.126251
19.50 376.404053
19.52 373.626587
19.54 379.039978
19.56 375.688904
19.58 378.042816
19.60 362.802734
19.62 364.933105
19.64 380.670746
19.66 379.002808
19.68 379.776245
19.70 387.649048
19.72 388.516174
19.74 377.740936
19.76 376.540558
19.78 380.745148
19.80 374.105316
19.82 370.418274
19.84 384.075562
19.86 401.30545
19.88 397.520142
19.90 386.733093
19.92 395.325958
19.94 397.270874
19.96 400.085602
19.98 391.41156
20.00 387.539429
20.02 393.144684
20.04 388.436218
20.06 382.875214
20.08 383.167969
20.10 387.726776
20.12 403.81546
20.14 422.218933
20.16 415.179169
20.18 414.220703
20.20 414.354553
20.22 409.850525
20.24 411.883514
20.26 416.046539
20.28 410.621552
20.30 410.867798
20.32 414.814667
20.34 422.443909
20.36 419.054901
20.38 412.330231
20.40 408.194824
20.42 401.468781
20.44 395.067139
20.46 415.566772
20.48 413.227661
20.50 400.574402
20.52 398.444092
20.54 422.519958
20.56 423.015625
20.58 417.676025
20.60 433.210785
20.62 433.860901
20.64 430.984283
20.66 432.093628
20.68 418.580292
20.70 424.4133
20.72 431.822113
20.74 436.204254
20.76 447.098633
20.78 452.20105
20.80 448.611511
20.82 449.339569
20.84 451.070587
20.86 453.04071
20.88 458.625
20.90 452.753601
20.92 449.707489
20.94 434.77066
20.96 443.036163
20.98 447.636597
21.00 461.957642
21.02 456.41925
21.04 442.293976
21.06 441.320496
21.08 432.967041
21.10 458.529236
21.12 453.920563
21.14 453.314392
21.16 441.356293
21.18 445.832092
21.20 458.736877
21.22 466.322662
21.24 469.652222
21.26 469.739319
21.28 467.203583
21.30 463.135498
21.32 466.480225
21.34 459.70578
21.36 459.343109
21.38 452.088165
21.40 455.151001
21.42 453.151428
21.44 456.387756
21.46 448.513611
21.48 449.541504
21.50 470.98114
21.52 472.421387
21.54 466.055542
21.56 458.155548
21.58 473.971832
21.60 466.193024
21.62 455.464203
21.64 451.069336
21.66 456.169312
21.68 460.39856
21.70 456.348206
21.72 453.376556
21.74 457.856628
21.76 458.971466
21.78 467.927643
21.80 479.044678
21.82 475.629425
21.84 472.557617
21.86 489.148163
21.88 486.129608
21.90 469.496918
21.92 465.939484
21.94 479.844696
21.96 489.456055
21.98 462.718353
22.00 467.203613
22.02 464.659088
22.04 465.08374
22.06 475.864868
22.08 476.282837
22.10 460.413025
22.12 452.124237
22.14 460.408783
22.16 460.723206
22.18 467.735992
22.20 493.853271
22.22 506.024109
22.24 504.083496
22.26 472.477753
22.28 474.623169
22.30 478.320587
22.32 482.617371
22.34 490.557922
22.36 491.686188
22.38 477.083344
22.40 472.66449
22.42 463.099518
22.44 473.56958
22.46 481.952942
22.48 481.561127
22.50 469.698486
22.52 485.859039
22.54 488.235657
22.56 484.657135
22.58 475.137146
22.60 489.923615
22.62 492.283417
22.64 479.455963
22.66 485.905029
22.68 502.136688
22.70 492.611023
22.72 488.833679
22.74 495.982727
22.76 490.1008
22.78 493.878418
22.80 509.19223
22.82 506.09021
22.84 485.214691
22.86 507.529327
22.88 504.435089
22.90 509.078613
22.92 515.160217
22.94 513.996765
22.96 499.297455
22.98 493.413544
23.00 505.419617
23.02 506.434448
23.04 519.672485
23.06 517.633362
23.08 516.912048
23.10 519.711304
23.12 504.800842
23.14 487.31073
23.16 498.904449
23.18 506.266479
23.20 511.830627
23.22 505.707092
23.24 521.001587
23.26 507.592377
23.28 486.437164
23.30 490.608185
23.32 510.72113
23.34 507.668701
23.36 506.233307
23.38 505.699432
23.40 513.017273
23.42 501.814148
23.44 513.141968
23.46 514.528259
23.48 502.058044
23.50 499.879272
23.52 501.737518
23.54 509.176453
23.56 519.5271
23.58 506.581421
23.60 509.332001
23.62 512.444031
23.64 511.700958
23.66 502.208405
23.68 497.192841
23.70 507.538971
23.72 531.800293
23.74 527.845703
23.76 512.101929
23.78 521.391296
23.80 510.325195
23.82 509.178009
23.84 516.223022
23.86 489.476654
23.88 493.811005
23.90 521.09668
23.92 535.702087
23.94 536.168579
23.96 527.751831
23.98 517.990662
24.00 536.617798
24.02 540.821289
24.04 518.10675
24.06 512.336792
24.08 528.442993
24.10 537.107544
24.12 523.099243
24.14 523.21637
24.16 517.397217
24.18 503.078552
24.20 507.097473
24.22 520.425903
24.24 542.229126
24.26 527.406555
24.28 508.981171
24.30 516.137146
24.32 528.503784
24.34 537.499695
24.36 521.647949
24.38 524.694946
24.40 518.309387
24.42 526.138306
24.44 548.039368
24.46 557.579163
24.48 549.980042
24.50 544.583252
24.52 540.851685
24.54 545.616699
24.56 550.042603
24.58 540.159058
24.60 542.252502
24.62 528.888916
24.64 514.63208
24.66 531.553284
24.68 541.160706
24.70 533.330261
24.72 538.792664
24.74 540.775269
24.76 532.434875
24.78 522.984192
24.80 521.175842
24.82 519.01062
24.84 525.716003
24.86 534.068787
24.88 536.542236
24.90 531.70636
24.92 533.749573
24.94 533.322815
24.96 525.423828
24.98 532.27771
25.00 534.913391
25.02 539.574341
25.04 535.146973
25.06 519.567261
25.08 519.484131
25.10 533.944153
25.12 544.452759
25.14 527.02301
25.16 517.842834
25.18 520.15625
25.20 527.661316
25.22 530.464478
25.24 531.416565
25.26 537.237976
25.28 539.297974
25.30 534.570801
25.32 529.201111
25.34 527.198608
25.36 532.105652
25.38 529.121521
25.40 537.842529
25.42 531.596375
25.44 534.290405
25.46 527.677734
25.48 536.179443
25.50 539.14093
25.52 523.727661
25.54 537.728149
25.56 556.442322
25.58 554.64325
25.60 534.936646
25.62 527.659668
25.64 526.118774
25.66 531.950073
25.68 523.347107
25.70 529.13855
25.72 536.368896
25.74 534.520996
25.76 539.011169
25.78 533.383911
25.80 544.847107
25.82 540.077515
25.84 531.90094
25.86 528.788879
25.88 535.459351
25.90 539.819214
25.92 536.07135
25.94 540.880188
25.96 568.29425
25.98 564.609863
26.00 539.893066
26.02 537.719604
26.04 542.524414
26.06 537.136658
26.08 538.387817
26.10 527.737427
26.12 526.681091
26.14 521.351563
26.16 536.22168
26.18 544.285156
26.20 535.431763
26.22 530.961365
26.24 531.743774
26.26 531.901062
26.28 530.347046
26.30 523.858765
26.32 521.826355
26.34 534.798401
26.36 536.013245
26.38 530.796936
26.40 537.208191
26.42 541.302673
26.44 548.505737
26.46 549.456787
26.48 549.191406
26.50 547.409363
26.52 554.289368
26.54 559.126404
26.56 552.408508
26.58 521.816467
26.60 526.88385
26.62 541.910706
26.64 558.957336
26.66 561.757141
26.68 537.453247
26.70 537.242432
26.72 552.822632
26.74 547.694031
26.76 545.924805
26.78 543.804688
26.80 534.796692
26.82 556.536865
26.84 548.057861
26.86 541.197571
26.88 532.222046
26.90 524.231628
26.92 549.802856
26.94 553.325989
26.96 538.232544
26.98 535.797485
27.00 543.937073
27.02 550.036865
27.04 554.856079
27.06 546.178772
27.08 548.025391
27.10 546.546936
27.12 552.607117
27.14 542.738098
27.16 537.226379
27.18 527.710388
27.20 542.973755
27.22 545.873352
27.24 536.8078
27.26 534.874207
27.28 534.78656
27.30 526.299622
27.32 524.613586
27.34 541.419495
27.36 538.030334
27.38 543.924194
27.40 546.188965
27.42 528.110291
27.44 524.351379
27.46 516.376526
27.48 524.158691
27.50 518.577759
27.52 539.400879
27.54 550.829346
27.56 548.704041
27.58 548.586975
27.60 547.376282
27.62 553.158997
27.64 545.735413
27.66 540.663269
27.68 544.381226
27.70 551.611389
27.72 546.613037
27.74 530.895813
27.76 542.624268
27.78 536.570984
27.80 542.077271
27.82 539.739685
27.84 547.965576
27.86 534.601074
27.88 539.279358
27.90 540.102112
27.92 534.42627
27.94 523.026733
27.96 524.722412
27.98 526.184021
28.00 527.827026
28.02 543.900208
28.04 532.770996
28.06 530.352051
28.08 528.354126
28.10 533.021362
28.12 520.242554
28.14 517.380676
28.16 537.236755
28.18 542.444824
28.20 529.221558
28.22 541.71228
28.24 539.412842
28.26 545.407837
28.28 542.05072
28.30 538.47644
28.32 526.557068
28.34 524.993408
28.36 531.658813
28.38 530.000305
28.40 524.623657
28.42 533.32605
28.44 538.817078
28.46 537.482788
28.48 526.156067
28.50 528.53717
28.52 548.353088
28.54 544.958191
28.56 556.086853
28.58 547.270569
28.60 535.818176
28.62 526.189148
28.64 533.652405
28.66 527.593933
28.68 523.861511
28.70 530.579041
28.72 549.466125
28.74 529.781372
28.76 533.166016
28.78 534.522339
28.80 532.091492
28.82 541.394226
28.84 539.726257
28.86 534.496826
28.88 531.856201
28.90 529.867493
28.92 524.742554
28.94 527.685364
28.96 525.359436
28.98 519.934692
29.00 529.763977
29.02 517.645996
29.04 514.892029
29.06 526.179199
29.08 532.620361
29.10 545.963196
29.12 550.11499
29.14 527.00946
29.16 518.742249
29.18 522.55835
29.20 533.676453
29.22 510.415863
29.24 509.713409
29.26 532.040955
29.28 535.633972
29.30 541.875183
29.32 526.35437
29.34 530.114075
29.36 539.695007
29.38 531.460266
29.40 538.602539
29.42 539.613342
29.44 532.65094
29.46 536.099731
29.48 530.357239
29.50 544.761475
29.52 543.162842
29.54 526.974426
29.56 528.568298
29.58 532.039368
29.60 526.053223
29.62 518.713257
29.64 525.153748
29.66 524.541626
29.68 521.238892
29.70 536.678711
29.72 537.520325
29.74 534.726379
29.76 533.681946
29.78 537.689697
29.80 521.60144
29.82 523.319702
29.84 539.939697
29.86 538.187988
29.88 537.770142
29.90 539.228333
29.92 533.457153
29.94 521.198303
29.96 510.869904
29.98 507.143524
30.00 522.841431
30.02 511.883423
30.04 498.574432
30.06 499.578186
30.08 508.611694
30.10 509.720612
30.12 519.851074
30.14 527.294434
30.16 510.283569
30.18 521.739563
30.20 520.403137
30.22 518.922302
30.24 517.840759
30.26 511.88913
30.28 511.057831
30.30 499.820557
30.32 498.676758
30.34 497.16626
30.36 499.381439
30.38 511.139893
30.40 490.853333
30.42 504.683197
30.44 503.722076
30.46 503.27356
30.48 499.60495
30.50 504.286621
30.52 498.913116
30.54 494.465576
30.56 496.606689
30.58 484.331238
30.60 491.412933
30.62 504.580933
30.64 501.009155
30.66 492.145264
30.68 492.449005
30.70 500.566193
30.72 481.418243
30.74 481.598663
30.76 482.318054
30.78 491.128967
30.80 497.237518
30.82 482.395538
30.84 492.389099
30.86 502.494202
30.88 493.052338
30.90 480.964081
30.92 485.596985
30.94 483.904358
30.96 487.07016
30.98 484.565704
31.00 485.357452
31.02 487.587006
31.04 487.419434
31.06 481.231262
31.08 469.763977
31.10 473.408783
31.12 475.658569
31.14 485.444855
31.16 475.147522
31.18 456.709839
31.20 469.670776
31.22 479.235962
31.24 481.629822
31.26 478.300385
31.28 470.087128
31.30 455.942261
31.32 462.32901
31.34 466.727783
31.36 459.449707
31.38 468.624634
31.40 479.099579
31.42 471.731232
31.44 465.256134
31.46 474.74707
31.48 467.322235
31.50 455.432739
31.52 462.839417
31.54 461.973572
31.56 454.542969
31.58 456.497284
31.60 452.453613
31.62 444.95285
31.64 456.171173
31.66 455.474121
31.68 446.091248
31.70 448.72525
31.72 447.521271
31.74 459.319946
31.76 454.788269
31.78 451.485687
31.80 450.010254
31.82 454.397522
31.84 461.469543
31.86 455.105225
31.88 463.226654
31.90 461.061127
31.92 459.304657
31.94 467.344543
31.96 463.383057
31.98 461.795502
32.00 456.035309
32.02 457.012634
32.04 446.452667
32.06 447.224518
32.08 447.218597
32.10 452.226105
32.12 453.331299
32.14 459.254456
32.16 447.166443
32.18 440.609955
32.20 451.355255
32.22 459.344879
32.24 464.698639
32.26 466.013977
32.28 455.85672
32.30 451.515625
32.32 446.824432
32.34 460.488007
32.36 465.219208
32.38 465.370758
32.40 453.478912
32.42 452.958649
32.44 463.549774
32.46 457.35791
32.48 452.353088
32.50 462.279755
32.52 459.742981
32.54 460.787994
32.56 461.382202
32.58 463.952026
32.60 456.333282
32.62 449.997314
32.64 462.19635
32.66 467.740417
32.68 459.257324
32.70 470.212616
32.72 464.15863
32.74 462.187317
32.76 470.775421
32.78 469.153687
32.80 466.847137
32.82 482.510406
32.84 483.407318
32.86 478.290771
32.88 481.360046
32.90 481.355713
32.92 462.065857
32.94 461.063873
32.96 474.684021
32.98 461.953461
33.00 460.459717
33.02 463.170135
33.04 475.094818
33.06 476.553894
33.08 477.377045
33.10 477.973053
33.12 480.128906
33.14 477.408295
33.16 460.722839
33.18 457.801605
33.20 466.938995
33.22 484.838348
33.24 485.229095
33.26 489.730103
33.28 499.120422
33.30 496.498413
33.32 480.105225
33.34 487.295044
33.36 491.548096
33.38 495.69455
33.40 482.887482
33.42 490.645111
33.44 489.322174
33.46 486.238159
33.48 492.055756
33.50 489.402618
33.52 497.186188
33.54 511.159943
33.56 493.065399
33.58 500.813263
33.60 501.50885
33.62 500.080902
33.64 489.086182
33.66 484.710968
33.68 490.340851
33.70 495.861786
33.72 501.271393
33.74 498.558502
33.76 505.273499
33.78 514.537598
33.80 493.40567
33.82 498.80127
33.84 487.253571
33.86 479.931641
33.88 481.542999
33.90 495.774689
33.92 499.783112
33.94 481.781433
33.96 491.665985
33.98 504.997437
34.00 496.069794
34.02 487.629669
34.04 482.545258
34.06 464.555939
34.08 461.210114
34.10 472.387604
34.12 461.91626
34.14 465.859009
34.16 468.164429
34.18 463.299286
34.20 455.817169
34.22 460.013031
34.24 457.613647
34.26 449.824066
34.28 448.986053
34.30 449.087036
34.32 445.051422
34.34 438.473602
34.36 432.522583
34.38 431.65921
34.40 434.961914
34.42 431.514526
34.44 431.383118
34.46 421.008362
34.48 399.655731
34.50 417.895996
34.52 422.746063
34.54 412.285095
34.56 408.097534
34.58 412.796936
34.60 410.059753
34.62 391.653564
34.64 410.21347
34.66 397.280701
34.68 391.948303
34.70 400.368744
34.72 418.122223
34.74 411.944702
34.76 406.843872
34.78 402.681366
34.80 395.096252
34.82 385.470123
34.84 391.791473
34.86 387.37207
34.88 385.77597
34.90 387.636902
34.92 410.014343
34.94 398.77005
34.96 400.875519
34.98 398.376984
35.00 387.682037
35.02 396.376068
35.04 389.10434
35.06 380.183685
35.08 386.655396
35.10 385.36792
35.12 387.293762
35.14 405.35672
35.16 408.121979
35.18 391.447815
35.20 390.968964
35.22 377.379639
35.24 372.936951
35.26 392.441864
35.28 400.480347
35.30 390.691284
35.32 379.610626
35.34 378.546814
35.36 377.860565
35.38 379.510864
35.40 379.475922
35.42 391.744263
35.44 390.019806
35.46 369.005707
35.48 377.36911
35.50 380.385773
35.52 371.854584
35.54 368.382477
35.56 371.699646
35.58 373.460358
35.60 382.87973
35.62 379.253387
35.64 373.945618
35.66 373.216431
35.68 368.119049
35.70 373.252045
35.72 367.509338
35.74 369.808228
35.76 385.549866
35.78 371.702942
35.80 365.640747
35.82 366.963715
35.84 369.146271
35.86 368.658325
35.88 380.373077
35.90 379.94162
35.92 358.124451
35.94 368.35083
35.96 367.710083
35.98 363.041107
36.00 375.085419
36.02 375.294617
36.04 369.855011
36.06 359.167572
36.08 359.508728
36.10 368.752533
36.12 366.307159
36.14 362.909576
36.16 365.440033
36.18 369.815155
36.20 358.285492
36.22 361.731598
36.24 359.393921
36.26 350.253937
36.28 353.157715
36.30 356.033295
36.32 347.554108
36.34 354.718079
36.36 356.893738
36.38 359.871704
36.40 354.720917
36.42 370.385376
36.44 355.519104
36.46 365.5755
36.48 361.78418
36.50 360.259613
36.52 363.576385
36.54 365.057861
36.56 355.491241
36.58 369.341766
36.60 362.156311
36.62 356.384705
36.64 362.574066
36.66 350.969147
36.68 354.893005
36.70 361.21933
36.72 358.144562
36.74 353.131958
36.76 355.018768
36.78 347.044128
36.80 351.212708
36.82 359.755463
36.84 364.336395
36.86 341.387177
36.88 348.141083
36.90 351.317017
36.92 347.196655
36.94 350.183746
36.96 347.647461
36.98 355.494659
37.00 348.71637
37.02 350.69397
37.04 343.076385
37.06 344.86615
37.08 349.363068
37.10 345.390747
37.12 350.02829
37.14 337.43335
37.16 338.33136
37.18 332.388763
37.20 324.44516
37.22 342.704681
37.24 353.15152
37.26 352.86203
37.28 342.872955
37.30 328.200684
37.32 336.360992
37.34 334.599945
37.36 336.641754
37.38 325.083527
37.40 333.974335
37.42 348.819336
37.44 345.716919
37.46 341.252777
37.48 332.212311
37.50 325.399109
37.52 325.920898
37.54 322.325409
37.56 330.2789
37.58 337.930664
37.60 323.351746
37.62 331.401123
37.64 327.924347
37.66 326.345428
37.68 318.671997
37.70 313.342743
37.72 321.447906
37.74 329.466522
37.76 326.969513
37.78 329.095245
37.80 320.706665
37.82 321.424774
37.84 325.087555
37.86 314.807709
37.88 315.678802
37.90 303.975464
37.92 319.352234
37.94 320.389496
37.96 337.137939
37.98 331.323792
38.00 326.852875
38.02 310.606842
38.04 311.067505
38.06 317.33078
38.08 323.610626
38.10 318.169891
38.12 317.161835
38.14 304.615631
38.16 303.504211
38.18 316.674774
38.20 315.621735
38.22 291.16748
38.24 290.974274
38.26 298.490295
38.28 307.907837
38.30 303.490021
38.32 295.353394
38.34 291.670563
38.36 302.44986
38.38 327.181549
38.40 316.850922
38.42 304.580231
38.44 296.317474
38.46 300.294434
38.48 303.869263
38.50 288.25
38.52 290.477325
38.54 290.372253
38.56 282.583191
38.58 286.3237
38.60 291.957611
38.62 298.826813
38.64 294.723267
38.66 302.098755
38.68 293.051056
38.70 285.492584
38.72 292.834656
38.74 300.852814
38.76 294.768555
38.78 284.041077
38.80 293.879547
38.82 284.416687
38.84 292.435913
38.86 287.379425
38.88 292.425476
38.90 294.23584
38.92 284.558197
38.94 279.678528
38.96 283.437469
38.98 289.862579
39.00 288.466339
39.02 269.27951
39.04 280.709778
39.06 277.195282
39.08 265.850159
39.10 280.003235
39.12 269.774597
39.14 280.684662
39.16 278.381073
39.18 262.505249
39.20 269.217255
39.22 284.720062
39.24 282.513123
39.26 273.089325
39.28 271.003082
39.30 269.03595
39.32 276.998993
39.34 265.731537
39.36 286.279388
39.38 282.092194
39.40 295.512543
39.42 295.143524
39.44 287.655823
39.46 291.237305
39.48 284.858429
39.50 271.609039
39.52 275.615845
39.54 285.421936
39.56 284.884003
39.58 282.224304
39.60 274.876984
39.62 266.934845
39.64 266.492462
39.66 271.11792
39.68 270.072052
39.70 265.948395
39.72 261.66748
39.74 255.20929
39.76 261.137146
39.78 262.106384
39.80 260.52356
39.82 269.527252
39.84 267.694
39.86 271.025391
39.88 272.423676
39.90 270.779907
39.92 266.740112
39.94 267.734222
39.96 257.834869
39.98 265.355103
40.00 271.447662
