!@!!GADDS PLOTSO FILE: Chi integration type
!@!!Title/SampleName: ML_MAPbX3
!@!!User: NREL
!@!!Site: NREL SERF C211; SN 2510
!@!!Frame: 081022_MLProject_000_011.gfrm
!@!!Wavelengths    1.54184   1.54056   1.54439
!@!!Frame angles: 2Theta: 28.000 Omega: 5.000 Phi: 0.000 Chi: 90.000
!@!!Integration range: 2Theta: 10.000 to 40.000  Gamma: -135.000 to -110.000
!@!!Integration method: bin normalized
!@!N
!@!SS
!@!M
!@!L 0.0 0.0 0.0 0.0
!@!XDegrees
!@!YCounts
10.00 131.922256
10.02 135.250473
10.04 140.720993
10.06 140.518768
10.08 132.531357
10.10 139.085785
10.12 136.796844
10.14 138.481796
10.16 133.415359
10.18 147.935837
10.20 140.883438
10.22 136.050583
10.24 157.785873
10.26 148.202789
10.28 134.242661
10.30 143.541656
10.32 150.9991
10.34 146.469604
10.36 146.7939
10.38 151.58316
10.40 155.12709
10.42 166.331238
10.44 155.868881
10.46 158.686554
10.48 153.143021
10.50 153.837997
10.52 168.461182
10.54 169.021561
10.56 156.693695
10.58 161.481064
10.60 170.389664
10.62 174.33223
10.64 162.728317
10.66 144.639236
10.68 160.167725
10.70 146.604584
10.72 149.208191
10.74 162.725586
10.76 176.190903
10.78 170.700439
10.80 172.561722
10.82 183.788239
10.84 169.011932
10.86 161.639481
10.88 170.606979
10.90 173.134171
10.92 173.041092
10.94 162.679825
10.96 190.993958
10.98 199.462006
11.00 174.519867
11.02 175.945679
11.04 173.508728
11.06 176.620377
11.08 172.419724
11.10 172.821579
11.12 165.54361
11.14 184.835297
11.16 175.316208
11.18 179.500916
11.20 178.355042
11.22 170.39592
11.24 173.715179
11.26 188.929886
11.28 185.588501
11.30 200.367645
11.32 186.127136
11.34 171.246307
11.36 198.579544
11.38 190.572174
11.40 187.066132
11.42 196.704285
11.44 195.343094
11.46 188.16684
11.48 184.658508
11.50 175.31398
11.52 191.019791
11.54 188.502426
11.56 176.272812
11.58 186.327209
11.60 189.118683
11.62 204.811966
11.64 189.883484
11.66 183.73941
11.68 203.370117
11.70 220.273392
11.72 209.105225
11.74 201.48941
11.76 195.790237
11.78 208.193436
11.80 205.793442
11.82 213.840851
11.84 212.408279
11.86 205.402695
11.88 216.321579
11.90 219.497208
11.92 213.268845
11.94 189.618942
11.96 188.550507
11.98 199.0914
12.00 202.60405
12.02 200.374603
12.04 194.318451
12.06 206.491516
12.08 210.653381
12.10 220.477966
12.12 229.832336
12.14 209.670898
12.16 223.254517
12.18 223.374008
12.20 204.785904
12.22 215.858383
12.24 209.761948
12.26 200.921951
12.28 205.577087
12.30 198.496964
12.32 217.456757
12.34 238.428055
12.36 223.600266
12.38 222.340088
12.40 217.523132
12.42 214.509781
12.44 217.22879
12.46 227.589035
12.48 229.609192
12.50 232.216309
12.52 216.448425
12.54 232.414078
12.56 225.051102
12.58 231.048096
12.60 233.159729
12.62 225.576965
12.64 230.325089
12.66 231.800201
12.68 232.82402
12.70 232.114166
12.72 218.621613
12.74 217.91069
12.76 231.419617
12.78 236.134979
12.80 238.774597
12.82 236.415787
12.84 242.377609
12.86 237.809998
12.88 229.490967
12.90 220.383102
12.92 226.03804
12.94 233.924637
12.96 232.258804
12.98 241.575882
13.00 247.407104
13.02 239.932312
13.04 232.585556
13.06 223.49144
13.08 226.241486
13.10 242.133575
13.12 239.484451
13.14 220.722855
13.16 225.584366
13.18 243.845657
13.20 246.055222
13.22 237.541382
13.24 238.885773
13.26 241.179169
13.28 247.456711
13.30 239.12384
13.32 243.721756
13.34 261.892792
13.36 263.499359
13.38 254.549149
13.40 249.794922
13.42 258.401703
13.44 240.556686
13.46 239.537292
13.48 251.213303
13.50 249.403137
13.52 249.288483
13.54 243.9664
13.56 252.894882
13.58 251.508133
13.60 252.458694
13.62 250.900528
13.64 237.352951
13.66 246.429626
13.68 249.50148
13.70 252.964722
13.72 239.857864
13.74 231.772034
13.76 243.941483
13.78 229.222
13.80 233.585419
13.82 227.418076
13.84 248.630783
13.86 255.361282
13.88 248.099991
13.90 238.498642
13.92 260.177551
13.94 256.699371
13.96 256.958893
13.98 254.257233
14.00 236.975586
14.02 243.182175
14.04 254.125427
14.06 257.829498
14.08 263.6763
14.10 271.349701
14.12 273.41272
14.14 254.684769
14.16 246.201752
14.18 255.871338
14.20 270.917847
14.22 248.303619
14.24 252.904282
14.26 258.332947
14.28 274.54187
14.30 278.660309
14.32 264.317444
14.34 260.578583
14.36 270.348755
14.38 259.580383
14.40 264.147888
14.42 276.688568
14.44 271.157928
14.46 262.631134
14.48 266.88562
14.50 271.803589
14.52 277.469055
14.54 272.36557
14.56 273.281799
14.58 264.337494
14.60 284.920563
14.62 287.042114
14.64 288.982117
14.66 287.364746
14.68 291.519623
14.70 305.382629
14.72 301.470947
14.74 298.271484
14.76 302.561371
14.78 312.33316
14.80 309.432495
14.82 322.573242
14.84 324.341431
14.86 316.528931
14.88 323.471436
14.90 337.812408
14.92 335.509766
14.94 330.248108
14.96 331.065491
14.98 335.799591
15.00 334.545746
15.02 346.62207
15.04 342.087402
15.06 334.063904
15.08 335.296692
15.10 342.79071
15.12 337.447632
15.14 350.206696
15.16 330.752472
15.18 340.802277
15.20 348.873169
15.22 327.235535
15.24 330.222809
15.26 325.518616
15.28 320.377289
15.30 312.97049
15.32 301.488251
15.34 313.747314
15.36 319.525269
15.38 306.370758
15.40 303.589081
15.42 296.611053
15.44 316.199249
15.46 301.016937
15.48 287.520905
15.50 288.586731
15.52 289.986694
15.54 283.313843
15.56 281.970001
15.58 295.777496
15.60 305.921631
15.62 293.891174
15.64 296.526886
15.66 286.471558
15.68 303.721863
15.70 297.952759
15.72 303.493561
15.74 294.623688
15.76 297.168091
15.78 288.797943
15.80 298.29361
15.82 304.951599
15.84 313.603668
15.86 302.016815
15.88 290.87561
15.90 302.035858
15.92 316.350067
15.94 311.43399
15.96 313.983917
15.98 300.987244
16.00 296.33252
16.02 298.902893
16.04 305.085083
16.06 299.147888
16.08 300.720825
16.10 317.029602
16.12 299.940125
16.14 289.734924
16.16 305.496155
16.18 311.64621
16.20 302.724701
16.22 295.32074
16.24 303.096344
16.26 297.442322
16.28 297.105377
16.30 307.004181
16.32 312.368835
16.34 308.973053
16.36 300.134918
16.38 300.419464
16.40 297.265625
16.42 307.745087
16.44 322.517853
16.46 308.809631
16.48 302.946503
16.50 296.192017
16.52 303.924286
16.54 305.912781
16.56 309.55658
16.58 304.119324
16.60 324.853485
16.62 340.477142
16.64 320.499573
16.66 322.817017
16.68 325.453247
16.70 319.797424
16.72 304.406952
16.74 304.735626
16.76 316.226563
16.78 331.081024
16.80 327.033356
16.82 321.431549
16.84 318.518372
16.86 329.370819
16.88 327.435364
16.90 324.471252
16.92 322.455933
16.94 330.961853
16.96 336.49707
16.98 322.766754
17.00 323.48938
17.02 324.732819
17.04 325.810944
17.06 321.046997
17.08 319.099152
17.10 335.704559
17.12 339.940582
17.14 333.240692
17.16 339.726074
17.18 342.746368
17.20 345.32486
17.22 341.144897
17.24 323.361511
17.26 321.74707
17.28 339.342896
17.30 332.08728
17.32 324.73526
17.34 339.684265
17.36 346.504578
17.38 337.286469
17.40 341.465942
17.42 347.219513
17.44 349.136322
17.46 358.360718
17.48 348.455597
17.50 349.978882
17.52 347.306824
17.54 354.011078
17.56 366.108582
17.58 343.940552
17.60 327.857941
17.62 339.939301
17.64 352.071472
17.66 340.96402
17.68 353.632751
17.70 354.7565
17.72 347.744019
17.74 353.766174
17.76 345.596222
17.78 347.385529
17.80 355.551697
17.82 343.223907
17.84 357.866913
17.86 365.293884
17.88 365.604614
17.90 365.530426
17.92 356.668549
17.94 351.291077
17.96 357.696411
17.98 367.44101
18.00 363.777313
18.02 356.688934
18.04 364.418915
18.06 374.300385
18.08 359.889435
18.10 367.489197
18.12 367.384308
18.14 358.920654
18.16 356.868469
18.18 358.029694
18.20 361.769104
18.22 364.835236
18.24 376.619293
18.26 358.217743
18.28 360.31662
18.30 366.766968
18.32 361.933167
18.34 371.281189
18.36 367.156982
18.38 374.832886
18.40 380.398712
18.42 351.150604
18.44 353.56311
18.46 372.215759
18.48 373.340698
18.50 377.395294
18.52 389.835388
18.54 380.092163
18.56 387.395142
18.58 384.825653
18.60 387.90686
18.62 375.788666
18.64 366.068817
18.66 360.460785
18.68 369.588257
18.70 388.861786
18.72 395.955536
18.74 378.733795
18.76 374.861633
18.78 388.921509
18.80 375.734558
18.82 391.17807
18.84 398.409271
18.86 391.897125
18.88 399.179718
18.90 404.489594
18.92 396.189606
18.94 393.423218
18.96 388.74649
18.98 394.086792
19.00 392.951874
19.02 400.915039
19.04 392.957031
19.06 382.712097
19.08 392.854218
19.10 402.899475
19.12 397.069855
19.14 393.95401
19.16 401.397736
19.18 404.501678
19.20 405.923157
19.22 391.378876
19.24 395.332672
19.26 394.385986
19.28 394.021729
19.30 401.751953
19.32 410.45694
19.34 412.554993
19.36 417.186554
19.38 417.451843
19.40 421.143341
19.42 417.289246
19.44 426.862244
19.46 419.162598
19.48 420.000732
19.50 426.814331
19.52 409.216705
19.54 424.948853
19.56 410.44873
19.58 424.449524
19.60 413.12027
19.62 408.497101
19.64 419.417358
19.66 415.895172
19.68 418.280884
19.70 418.778198
19.72 428.193359
19.74 419.460602
19.76 427.765289
19.78 426.902832
19.80 431.398468
19.82 432.352051
19.84 418.13028
19.86 428.827698
19.88 441.290894
19.90 444.52066
19.92 443.703583
19.94 425.474823
19.96 434.166138
19.98 436.742706
20.00 437.202759
20.02 416.346741
20.04 428.350128
20.06 443.941864
20.08 427.815826
20.10 421.017395
20.12 435.543732
20.14 441.558594
20.16 432.515991
20.18 443.090424
20.20 452.568848
20.22 458.317261
20.24 461.318146
20.26 474.058868
20.28 453.849945
20.30 430.416351
20.32 438.902374
20.34 463.157715
20.36 447.092377
20.38 451.455353
20.40 459.462189
20.42 444.788696
20.44 447.720734
20.46 442.942139
20.48 466.799774
20.50 484.883606
20.52 474.304077
20.54 472.320648
20.56 471.111023
20.58 478.534943
20.60 465.870453
20.62 463.755981
20.64 481.175018
20.66 495.153778
20.68 495.860596
20.70 491.64682
20.72 474.938293
20.74 484.404266
20.76 485.775848
20.78 491.73056
20.80 476.585358
20.82 482.067749
20.84 486.528992
20.86 499.951721
20.88 503.301514
20.90 503.884003
20.92 502.715942
20.94 503.295319
20.96 502.182159
20.98 510.600922
21.00 523.589905
21.02 535.619202
21.04 513.32489
21.06 503.301208
21.08 514.990112
21.10 532.266785
21.12 546.854675
21.14 538.718567
21.16 521.913574
21.18 536.714966
21.20 558.885925
21.22 534.727234
21.24 532.546082
21.26 561.641602
21.28 562.590515
21.30 541.077759
21.32 557.321106
21.34 564.926392
21.36 559.558594
21.38 552.502686
21.40 540.667969
21.42 545.788513
21.44 556.452576
21.46 560.716003
21.48 531.796082
21.50 546.220398
21.52 569.782715
21.54 544.564758
21.56 539.448303
21.58 552.466309
21.60 551.954407
21.62 552.532288
21.64 550.743774
21.66 542.510498
21.68 535.211365
21.70 534.750305
21.72 555.451111
21.74 559.910767
21.76 536.011047
21.78 532.469238
21.80 546.140503
21.82 544.63678
21.84 543.310852
21.86 549.993835
21.88 553.428284
21.90 543.604492
21.92 540.275513
21.94 552.924744
21.96 552.456299
21.98 546.763123
22.00 538.97113
22.02 549.390381
22.04 552.453918
22.06 548.349854
22.08 541.377686
22.10 520.029846
22.12 528.251038
22.14 551.153809
22.16 550.498596
22.18 555.304565
22.20 561.677673
22.22 550.424927
22.24 540.743835
22.26 535.181702
22.28 525.299194
22.30 528.945862
22.32 543.631042
22.34 544.995117
22.36 541.442627
22.38 532.658936
22.40 554.569519
22.42 552.751892
22.44 543.213013
22.46 536.381287
22.48 542.203979
22.50 554.509827
22.52 555.49469
22.54 564.623108
22.56 544.523926
22.58 545.077026
22.60 558.901428
22.62 537.629639
22.64 540.601746
22.66 550.67627
22.68 548.756958
22.70 545.499451
22.72 553.871643
22.74 559.430847
22.76 549.727783
22.78 566.576782
22.80 562.028992
22.82 545.748779
22.84 548.974976
22.86 575.219421
22.88 573.649109
22.90 578.072937
22.92 578.722778
22.94 568.287476
22.96 569.790833
22.98 575.665222
23.00 569.545898
23.02 563.547363
23.04 554.561584
23.06 559.321167
23.08 574.853699
23.10 564.943542
23.12 566.499084
23.14 553.121338
23.16 555.887878
23.18 543.187683
23.20 541.215271
23.22 562.7724
23.24 553.928833
23.26 554.537964
23.28 559.920105
23.30 574.380432
23.32 581.061279
23.34 578.978027
23.36 582.756714
23.38 571.863098
23.40 573.917847
23.42 576.729797
23.44 566.840393
23.46 569.448608
23.48 548.546875
23.50 555.050232
23.52 573.420166
23.54 570.633545
23.56 558.545227
23.58 558.163513
23.60 558.180115
23.62 573.057861
23.64 571.595093
23.66 564.510376
23.68 569.271362
23.70 568.997864
23.72 574.272949
23.74 578.809265
23.76 567.249695
23.78 582.381042
23.80 571.325256
23.82 570.460327
23.84 576.588318
23.86 564.86853
23.88 572.743774
23.90 573.841309
23.92 555.513245
23.94 564.833069
23.96 581.323669
23.98 584.019226
24.00 575.174866
24.02 567.459595
24.04 570.049805
24.06 575.652771
24.08 578.490906
24.10 579.140442
24.12 566.682129
24.14 560.124512
24.16 560.263489
24.18 564.2854
24.20 565.610596
24.22 573.621887
24.24 575.551575
24.26 575.837097
24.28 577.218445
24.30 582.93335
24.32 589.210632
24.34 577.851318
24.36 572.415283
24.38 584.200867
24.40 590.703735
24.42 590.359497
24.44 575.028564
24.46 587.658997
24.48 590.02417
24.50 606.923401
24.52 587.718384
24.54 580.38385
24.56 584.832581
24.58 589.817993
24.60 574.946472
24.62 576.788696
24.64 586.678711
24.66 589.687683
24.68 591.67218
24.70 593.717651
24.72 582.082947
24.74 571.711792
24.76 598.959717
24.78 609.017334
24.80 595.462341
24.82 603.290588
24.84 595.030457
24.86 585.825378
24.88 574.585571
24.90 560.598389
24.92 580.893616
24.94 573.375488
24.96 565.178833
24.98 563.622742
25.00 576.398315
25.02 592.263489
25.04 567.139954
25.06 576.421143
25.08 585.506653
25.10 594.98053
25.12 593.411987
25.14 574.090881
25.16 569.901855
25.18 572.028564
25.20 595.964478
25.22 608.405579
25.24 582.442627
25.26 591.068665
25.28 589.49115
25.30 584.386353
25.32 579.794922
25.34 576.969299
25.36 586.760986
25.38 582.274658
25.40 580.159851
25.42 574.507324
25.44 582.208984
25.46 584.91748
25.48 583.037781
25.50 580.124084
25.52 576.673889
25.54 589.900452
25.56 595.138184
25.58 587.963745
25.60 585.369324
25.62 602.796936
25.64 596.158813
25.66 584.234375
25.68 587.30249
25.70 592.769409
25.72 590.332642
25.74 589.563538
25.76 585.2276
25.78 593.947876
25.80 587.832153
25.82 575.40094
25.84 570.125977
25.86 564.723145
25.88 561.531006
25.90 566.425781
25.92 589.064697
25.94 586.127197
25.96 584.668091
25.98 587.408508
26.00 576.122192
26.02 568.968079
26.04 577.256653
26.06 572.089905
26.08 583.719177
26.10 595.895264
26.12 595.056519
26.14 577.376038
26.16 571.527039
26.18 569.994202
26.20 584.038269
26.22 585.571472
26.24 578.979187
26.26 582.301453
26.28 585.482971
26.30 577.466736
26.32 581.642578
26.34 588.495605
26.36 598.768066
26.38 596.296265
26.40 579.630554
26.42 583.039368
26.44 588.921265
26.46 586.606018
26.48 570.600159
26.50 592.892151
26.52 588.825256
26.54 564.352356
26.56 567.468506
26.58 580.340881
26.60 582.742798
26.62 574.722839
26.64 573.432495
26.66 570.735107
26.68 577.376404
26.70 579.904785
26.72 593.758728
26.74 600.396362
26.76 595.02655
26.78 590.622314
26.80 581.747437
26.82 576.023071
26.84 572.908325
26.86 562.797485
26.88 569.570679
26.90 568.169006
26.92 577.632141
26.94 569.223083
26.96 569.855408
26.98 584.297974
27.00 606.467407
27.02 596.363647
27.04 598.409729
27.06 565.500549
27.08 548.578613
27.10 558.734985
27.12 577.033569
27.14 590.628296
27.16 581.912354
27.18 570.254639
27.20 588.442444
27.22 586.643677
27.24 574.643372
27.26 575.367493
27.28 572.623047
27.30 573.828857
27.32 576.453247
27.34 579.230225
27.36 557.827942
27.38 557.110413
27.40 571.611755
27.42 578.352173
27.44 583.123352
27.46 580.578674
27.48 575.159729
27.50 576.717529
27.52 579.024536
27.54 573.973999
27.56 568.398499
27.58 577.108887
27.60 582.376404
27.62 565.308289
27.64 565.503357
27.66 578.896057
27.68 577.462463
27.70 577.940308
27.72 580.670898
27.74 580.80896
27.76 565.199463
27.78 569.522217
27.80 574.578491
27.82 580.852234
27.84 566.189331
27.86 568.87323
27.88 577.866333
27.90 575.390686
27.92 577.207642
27.94 585.935486
27.96 588.033875
27.98 577.969666
28.00 580.182373
28.02 571.255798
28.04 577.713257
28.06 579.320801
28.08 561.61438
28.10 562.704102
28.12 563.447083
28.14 564.477844
28.16 567.385864
28.18 586.129089
28.20 587.966553
28.22 585.216797
28.24 582.164185
28.26 579.030151
28.28 565.370422
28.30 563.508606
28.32 563.973694
28.34 560.715881
28.36 557.152222
28.38 559.794373
28.40 562.843811
28.42 554.208435
28.44 545.508545
28.46 560.516357
28.48 570.938171
28.50 573.513855
28.52 571.011536
28.54 570.495789
28.56 576.710327
28.58 574.868835
28.60 573.433228
28.62 555.386414
28.64 553.035828
28.66 569.295715
28.68 566.245239
28.70 575.121765
28.72 569.149658
28.74 562.945984
28.76 563.166992
28.78 560.921509
28.80 548.684265
28.82 543.071289
28.84 567.457886
28.86 571.083435
28.88 558.807251
28.90 555.650635
28.92 557.000854
28.94 552.8125
28.96 544.716614
28.98 552.977051
29.00 546.792542
29.02 557.097168
29.04 558.451477
29.06 545.873718
29.08 552.161011
29.10 549.622498
29.12 546.675354
29.14 542.593323
29.16 533.345703
29.18 533.485718
29.20 546.09137
29.22 562.47998
29.24 560.567993
29.26 554.880371
29.28 564.42627
29.30 556.872559
29.32 550.114136
29.34 555.670532
29.36 555.198303
29.38 548.409302
29.40 552.027344
29.42 565.173279
29.44 573.064331
29.46 551.233032
29.48 547.3125
29.50 547.44989
29.52 555.918152
29.54 548.330627
29.56 549.03064
29.58 551.133728
29.60 549.068115
29.62 546.472351
29.64 546.739563
29.66 545.838562
29.68 549.233887
29.70 536.93512
29.72 527.239868
29.74 531.626099
29.76 546.227722
29.78 545.059082
29.80 533.437317
29.82 547.249023
29.84 547.254333
29.86 552.150391
29.88 566.258057
29.90 563.549988
29.92 558.51001
29.94 555.816223
29.96 547.47937
29.98 543.545837
30.00 543.062195
30.02 543.460632
30.04 536.477478
30.06 535.197632
30.08 543.457703
30.10 535.822693
30.12 541.850769
30.14 554.610779
30.16 556.437195
30.18 552.049316
30.20 558.329163
30.22 541.792847
30.24 547.083923
30.26 545.996643
30.28 544.692444
30.30 565.583191
30.32 559.931702
30.34 550.940735
30.36 561.615234
30.38 558.521973
30.40 549.661621
30.42 551.402405
30.44 559.344727
30.46 566.955872
30.48 554.627808
30.50 567.361389
30.52 552.987732
30.54 537.193359
30.56 547.764954
30.58 556.704285
30.60 552.640869
30.62 543.548584
30.64 548.639038
30.66 550.08252
30.68 531.220093
30.70 533.431885
30.72 544.933105
30.74 537.764648
30.76 536.318848
30.78 534.191101
30.80 529.153259
30.82 523.279785
30.84 517.231995
30.86 506.140045
30.88 510.472351
30.90 509.664581
30.92 504.770752
30.94 518.333069
30.96 517.026978
30.98 514.774353
31.00 513.358398
31.02 511.128235
31.04 523.532715
31.06 519.783325
31.08 505.622345
31.10 508.403046
31.12 498.005615
31.14 498.918518
31.16 514.220825
31.18 510.597473
31.20 512.7146
31.22 504.635162
31.24 507.220276
31.26 494.372284
31.28 487.281799
31.30 492.00296
31.32 501.037537
31.34 504.891754
31.36 503.473938
31.38 495.96817
31.40 482.239288
31.42 479.405823
31.44 478.279297
31.46 490.759338
31.48 497.206512
31.50 505.36676
31.52 491.953918
31.54 460.045807
31.56 475.401978
31.58 493.357086
31.60 494.245789
31.62 493.39386
31.64 481.17749
31.66 478.790985
31.68 491.469208
31.70 482.841827
31.72 472.097412
31.74 483.387146
31.76 479.562653
31.78 469.97702
31.80 480.634705
31.82 478.365662
31.84 478.115631
31.86 475.43512
31.88 479.512634
31.90 479.68576
31.92 471.332672
31.94 468.064209
31.96 470.029388
31.98 461.188354
32.00 461.845337
32.02 462.632263
32.04 464.277466
32.06 478.442169
32.08 481.886322
32.10 472.331055
32.12 482.845154
32.14 478.33429
32.16 480.142029
32.18 467.894867
32.20 465.739288
32.22 469.338715
32.24 467.015533
32.26 473.022644
32.28 479.789093
32.30 471.036713
32.32 459.576294
32.34 464.976593
32.36 473.445709
32.38 461.532349
32.40 455.528381
32.42 463.555878
32.44 465.515656
32.46 464.337158
32.48 461.38623
32.50 461.301208
32.52 454.69754
32.54 476.209229
32.56 470.071411
32.58 464.317932
32.60 470.088928
32.62 461.499054
32.64 452.888184
32.66 448.518219
32.68 459.610992
32.70 462.596039
32.72 458.131989
32.74 467.547424
32.76 465.903473
32.78 457.813904
32.80 451.577545
32.82 446.857239
32.84 445.916077
32.86 453.786957
32.88 450.890106
32.90 461.78952
32.92 457.718323
32.94 455.25296
32.96 449.306915
32.98 450.898682
33.00 461.473969
33.02 461.622162
33.04 442.469543
33.06 449.81958
33.08 462.395966
33.10 453.821869
33.12 440.442383
33.14 450.177734
33.16 443.544891
33.18 449.356659
33.20 441.212646
33.22 445.839417
33.24 452.553436
33.26 453.96933
33.28 453.574097
33.30 454.938965
33.32 464.402405
33.34 449.273956
33.36 448.622253
33.38 451.044525
33.40 457.474457
33.42 461.634399
33.44 465.687103
33.46 440.690643
33.48 442.366577
33.50 461.035828
33.52 452.563599
33.54 466.911377
33.56 461.564941
33.58 447.624756
33.60 439.666595
33.62 463.205231
33.64 451.515289
33.66 453.439819
33.68 452.503235
33.70 454.914276
33.72 467.92926
33.74 477.070923
33.76 467.453674
33.78 466.690002
33.80 469.549286
33.82 470.502319
33.84 471.726227
33.86 466.39621
33.88 484.349792
33.90 490.238281
33.92 476.044037
33.94 491.319153
33.96 485.991302
33.98 493.743195
34.00 510.049377
34.02 508.486542
34.04 500.893341
34.06 498.861938
34.08 511.215546
34.10 526.326477
34.12 522.710449
34.14 503.640808
34.16 508.157715
34.18 508.566681
34.20 514.085327
34.22 527.81012
34.24 545.258362
34.26 537.927979
34.28 525.146484
34.30 534.085693
34.32 530.178772
34.34 535.797791
34.36 538.395325
34.38 531.213074
34.40 525.750061
34.42 527.894409
34.44 524.76416
34.46 501.753479
34.48 496.148132
34.50 480.120697
34.52 489.571167
34.54 486.728455
34.56 479.822205
34.58 490.881165
34.60 474.706177
34.62 469.828949
34.64 467.589966
34.66 467.196167
34.68 472.967621
34.70 470.794708
34.72 469.66806
34.74 455.524841
34.76 447.589569
34.78 446.856293
34.80 449.193329
34.82 448.033539
34.84 453.397217
34.86 434.670807
34.88 427.14035
34.90 435.675903
34.92 446.105927
34.94 433.273163
34.96 416.575165
34.98 428.054443
35.00 423.544525
35.02 418.023193
35.04 424.246552
35.06 411.186066
35.08 413.30542
35.10 414.828278
35.12 396.204102
35.14 396.21405
35.16 397.186646
35.18 394.48468
35.20 413.037231
35.22 410.532104
35.24 407.67923
35.26 399.610596
35.28 396.174042
35.30 402.041748
35.32 402.984894
35.34 399.508087
35.36 389.49408
35.38 385.347382
35.40 386.278931
35.42 392.590759
35.44 395.268311
35.46 389.796387
35.48 398.223633
35.50 420.490021
35.52 418.038483
35.54 395.854523
35.56 382.306244
35.58 387.194122
35.60 378.973938
35.62 385.660339
35.64 392.19754
35.66 391.546234
35.68 398.429718
35.70 393.288971
35.72 378.879333
35.74 381.327332
35.76 388.177002
35.78 375.433472
35.80 361.270477
35.82 379.623871
35.84 379.63797
35.86 375.423615
35.88 376.42572
35.90 375.320068
35.92 380.639679
35.94 383.702332
35.96 368.068848
35.98 372.994629
36.00 380.803925
36.02 374.192291
36.04 377.635712
36.06 368.249268
36.08 365.51059
36.10 366.010376
36.12 369.959778
36.14 376.844635
36.16 374.717316
36.18 364.672485
36.20 368.219879
36.22 368.164948
36.24 368.05542
36.26 376.218323
36.28 370.555756
36.30 365.973389
36.32 370.849304
36.34 373.434387
36.36 367.205994
36.38 363.270752
36.40 368.628265
36.42 357.86795
36.44 361.774597
36.46 363.447662
36.48 368.713654
36.50 370.92984
36.52 371.72113
36.54 366.357391
36.56 356.031067
36.58 356.821136
36.60 358.695313
36.62 366.269318
36.64 358.584137
36.66 359.201447
36.68 357.807343
36.70 355.30658
36.72 351.226837
36.74 354.960663
36.76 352.816986
36.78 354.061615
36.80 358.882111
36.82 353.451111
36.84 360.421265
36.86 343.298737
36.88 352.573822
36.90 354.295746
36.92 362.018219
36.94 368.265625
36.96 356.924896
36.98 376.28421
37.00 357.109589
37.02 348.881653
37.04 346.616699
37.06 339.791656
37.08 353.792908
37.10 351.698944
37.12 346.266968
37.14 356.377716
37.16 360.071198
37.18 348.285065
37.20 342.410156
37.22 345.696747
37.24 346.357788
37.26 336.595276
37.28 342.585968
37.30 347.7901
37.32 352.512085
37.34 356.017426
37.36 353.312256
37.38 350.626038
37.40 353.31131
37.42 356.373047
37.44 352.265228
37.46 354.405548
37.48 349.481262
37.50 346.428741
37.52 356.82074
37.54 356.799622
37.56 355.342041
37.58 348.52359
37.60 350.664764
37.62 351.26825
37.64 358.0495
37.66 354.638062
37.68 352.964905
37.70 343.916901
37.72 355.000061
37.74 359.087494
37.76 363.52829
37.78 356.630402
37.80 345.010956
37.82 349.121521
37.84 352.860931
37.86 346.825623
37.88 351.253845
37.90 344.125122
37.92 346.112335
37.94 332.90387
37.96 321.845947
37.98 344.640717
38.00 332.354248
38.02 327.782837
38.04 334.183533
38.06 331.216248
38.08 321.462952
38.10 330.978668
38.12 334.864655
38.14 327.702576
38.16 317.682037
38.18 317.091705
38.20 323.139648
38.22 316.931976
38.24 321.70462
38.26 309.712128
38.28 313.248077
38.30 313.541046
38.32 309.018768
38.34 325.476288
38.36 319.014832
38.38 314.467224
38.40 314.53302
38.42 312.268066
38.44 331.775848
38.46 311.13443
38.48 319.215851
38.50 322.872559
38.52 309.389465
38.54 301.786041
38.56 322.401306
38.58 316.247925
38.60 314.391296
38.62 312.328735
38.64 303.175964
38.66 297.519806
38.68 298.181
38.70 313.546631
38.72 315.111511
38.74 312.434082
38.76 313.040649
38.78 307.59494
38.80 293.701141
38.82 292.92157
38.84 303.465057
38.86 304.290466
38.88 299.788361
38.90 308.075165
38.92 304.158142
38.94 304.968628
38.96 310.841278
38.98 298.868408
39.00 293.53949
39.02 307.910461
39.04 296.303436
39.06 281.601044
39.08 290.310242
39.10 294.716187
39.12 293.079041
39.14 285.983398
39.16 282.769623
39.18 282.930298
39.20 283.967102
39.22 290.373627
39.24 290.514679
39.26 302.753662
39.28 300.685181
39.30 287.924988
39.32 283.038849
39.34 281.876617
39.36 269.057465
39.38 282.928772
39.40 284.987335
39.42 273.158234
39.44 276.006775
39.46 288.533478
39.48 287.911713
39.50 290.444763
39.52 285.393738
39.54 283.893921
39.56 290.458618
39.58 284.303528
39.60 285.978333
39.62 278.60788
39.64 279.710236
39.66 283.821716
39.68 281.085846
39.70 281.342163
39.72 288.17511
39.74 276.021027
39.76 269.26123
39.78 277.14093
39.80 278.316681
39.82 277.211487
39.84 276.711945
39.86 285.044403
39.88 280.748688
39.90 277.367981
39.92 268.324249
39.94 270.200745
39.96 278.968872
39.98 283.225494
40.00 271.763916
