!@!!GADDS PLOTSO FILE: Chi integration type
!@!!Title/SampleName: ML_MAPbX3
!@!!User: NREL
!@!!Site: NREL SERF C211; SN 2510
!@!!Frame: 081022_MLProject_000_012.gfrm
!@!!Wavelengths    1.54184   1.54056   1.54439
!@!!Frame angles: 2Theta: 28.000 Omega: 5.000 Phi: 0.000 Chi: 90.000
!@!!Integration range: 2Theta: 10.000 to 41.100  Gamma: -120.400 to -60.400
!@!!Integration method: bin normalized
!@!N
!@!SS
!@!M
!@!L 0.0 0.0 0.0 0.0
!@!XDegrees
!@!YCounts
10.00 241.608658
10.01 240.424683
10.02 236.199661
10.03 236.113602
10.04 238.708008
10.05 237.986191
10.06 235.380051
10.07 234.311966
10.08 235.511597
10.09 230.674789
10.10 225.184372
10.11 231.295319
10.12 231.833908
10.13 240.558365
10.14 249.410522
10.15 240.313309
10.16 233.79808
10.17 231.921631
10.18 229.827225
10.19 230.961609
10.20 236.03064
10.21 239.200287
10.22 230.89856
10.23 221.47467
10.24 226.934982
10.25 230.439407
10.26 228.145767
10.27 229.880219
10.28 228.426132
10.29 237.448517
10.30 234.864548
10.31 226.508011
10.32 235.869476
10.33 240.233246
10.34 239.09494
10.35 240.450348
10.36 238.15271
10.37 234.511108
10.38 235.24292
10.39 237.786453
10.40 238.388702
10.41 237.804352
10.42 243.112915
10.43 243.284988
10.44 240.963943
10.45 243.876175
10.46 240.907639
10.47 239.567932
10.48 246.08577
10.49 252.357162
10.50 254.916183
10.51 250.766724
10.52 241.759644
10.53 237.852081
10.54 239.71701
10.55 250.2565
10.56 255.659805
10.57 249.697968
10.58 248.731583
10.59 248.208527
10.60 243.621292
10.61 237.258957
10.62 233.657364
10.63 242.242813
10.64 242.498795
10.65 236.425034
10.66 237.31218
10.67 236.50264
10.68 244.089447
10.69 248.802246
10.70 247.815155
10.71 252.409515
10.72 250.890366
10.73 246.668259
10.74 248.106903
10.75 241.459244
10.76 234.973434
10.77 234.802872
10.78 230.554962
10.79 232.538879
10.80 232.600906
10.81 235.854568
10.82 240.979004
10.83 244.898209
10.84 251.158249
10.85 250.248367
10.86 251.436295
10.87 259.52359
10.88 263.739166
10.89 266.735046
10.90 257.235931
10.91 248.799866
10.92 252.315323
10.93 249.962524
10.94 245.969925
10.95 243.226974
10.96 244.538544
10.97 254.725418
10.98 259.736908
10.99 253.616104
11.00 246.744431
11.01 240.898987
11.02 243.371918
11.03 248.017899
11.04 250.312454
11.05 256.931854
11.06 250.652542
11.07 238.197052
11.08 242.736465
11.09 250.040985
11.10 251.954178
11.11 247.492294
11.12 251.338852
11.13 258.595001
11.14 257.695557
11.15 254.589081
11.16 261.22345
11.17 262.195221
11.18 256.47702
11.19 254.28096
11.20 251.909332
11.21 243.94342
11.22 245.163773
11.23 247.833633
11.24 248.878754
11.25 255.982941
11.26 252.09462
11.27 249.952408
11.28 252.099106
11.29 253.302917
11.30 254.168243
11.31 251.96608
11.32 251.488861
11.33 251.130508
11.34 247.484955
11.35 248.642258
11.36 251.756439
11.37 255.281097
11.38 255.195175
11.39 246.248978
11.40 247.516586
11.41 251.009247
11.42 255.863235
11.43 262.383881
11.44 260.861725
11.45 257.681396
11.46 263.085358
11.47 260.255859
11.48 257.068146
11.49 267.055664
11.50 270.561707
11.51 266.441162
11.52 260.033539
11.53 252.768784
11.54 255.548767
11.55 252.075226
11.56 251.527573
11.57 262.343018
11.58 266.597198
11.59 263.838409
11.60 261.706848
11.61 261.966888
11.62 261.689148
11.63 260.157745
11.64 260.635651
11.65 254.360199
11.66 254.611725
11.67 263.7724
11.68 258.4953
11.69 253.74118
11.70 253.75946
11.71 256.212006
11.72 265.316193
11.73 265.945129
11.74 268.69281
11.75 274.840576
11.76 273.308075
11.77 273.316254
11.78 274.215088
11.79 272.904755
11.80 270.032715
11.81 268.931763
11.82 262.995453
11.83 252.699432
11.84 251.867813
11.85 258.556885
11.86 262.25177
11.87 262.232574
11.88 261.371765
11.89 260.818604
11.90 259.994171
11.91 258.888275
11.92 261.978882
11.93 270.806946
11.94 270.33194
11.95 266.055573
11.96 262.186981
11.97 261.230621
11.98 267.012787
11.99 272.35025
12.00 277.344116
12.01 273.862671
12.02 269.179016
12.03 267.831573
12.04 266.121582
12.05 265.138062
12.06 265.890289
12.07 272.220978
12.08 271.545502
12.09 266.46701
12.10 271.552826
12.11 277.442261
12.12 277.033234
12.13 278.695282
12.14 281.841827
12.15 278.88559
12.16 274.980286
12.17 272.111176
12.18 273.243988
12.19 278.407074
12.20 280.429535
12.21 277.994934
12.22 278.999908
12.23 279.640015
12.24 279.127136
12.25 282.086151
12.26 283.770386
12.27 293.8508
12.28 294.305389
12.29 293.176453
12.30 294.942596
12.31 290.165253
12.32 290.150665
12.33 290.730774
12.34 286.099152
12.35 281.305969
12.36 282.259796
12.37 284.632263
12.38 283.961304
12.39 290.47168
12.40 295.889435
12.41 291.338684
12.42 297.437195
12.43 300.455627
12.44 297.425751
12.45 299.464417
12.46 295.653961
12.47 298.009247
12.48 306.788513
12.49 312.26181
12.50 319.183655
12.51 317.212524
12.52 307.279297
12.53 307.837677
12.54 311.417816
12.55 318.476685
12.56 321.481689
12.57 324.38739
12.58 323.460876
12.59 310.177429
12.60 301.781921
12.61 303.777069
12.62 313.479614
12.63 316.524048
12.64 317.049042
12.65 317.050598
12.66 322.910645
12.67 321.630646
12.68 316.965271
12.69 314.476196
12.70 313.474213
12.71 315.008698
12.72 306.776978
12.73 299.668884
12.74 301.406158
12.75 296.965515
12.76 289.608795
12.77 297.746246
12.78 298.532776
12.79 303.811218
12.80 305.368317
12.81 294.510468
12.82 301.738831
12.83 308.296906
12.84 299.152069
12.85 296.556824
12.86 297.963715
12.87 298.108307
12.88 296.305817
12.89 292.180023
12.90 294.391479
12.91 295.999451
12.92 297.923981
12.93 296.025879
12.94 291.399048
12.95 292.55011
12.96 295.708099
12.97 301.399445
12.98 301.355652
12.99 297.852509
13.00 297.884857
13.01 296.33548
13.02 301.344299
13.03 308.263947
13.04 301.374146
13.05 294.554901
13.06 289.649475
13.07 288.765625
13.08 294.188843
13.09 296.766266
13.10 292.809357
13.11 291.641968
13.12 287.051971
13.13 284.147644
13.14 291.641602
13.15 290.44397
13.16 290.857147
13.17 292.773193
13.18 295.135925
13.19 298.141327
13.20 291.410034
13.21 287.456451
13.22 298.251099
13.23 305.136047
13.24 303.612152
13.25 298.718872
13.26 305.313812
13.27 317.516113
13.28 321.987
13.29 314.60199
13.30 313.645264
13.31 321.354828
13.32 320.343048
13.33 314.135223
13.34 313.274658
13.35 308.698944
13.36 304.795593
13.37 317.337738
13.38 328.08078
13.39 325.557922
13.40 326.827423
13.41 329.207062
13.42 330.442719
13.43 331.040131
13.44 329.83783
13.45 329.600739
13.46 325.532471
13.47 324.212158
13.48 324.282196
13.49 328.226288
13.50 337.987885
13.51 335.016754
13.52 334.434113
13.53 343.106842
13.54 349.86908
13.55 350.999756
13.56 357.994934
13.57 364.846161
13.58 370.631104
13.59 372.347076
13.60 374.523926
13.61 372.164581
13.62 368.502838
13.63 373.964478
13.64 378.095947
13.65 378.595245
13.66 383.018829
13.67 398.551971
13.68 406.185059
13.69 409.427246
13.70 417.056
13.71 419.678192
13.72 422.420471
13.73 427.349884
13.74 420.739319
13.75 435.235657
13.76 454.803009
13.77 465.169708
13.78 478.628998
13.79 495.928162
13.80 499.657043
13.81 484.108459
13.82 480.932831
13.83 496.639496
13.84 503.437836
13.85 507.628967
13.86 505.14624
13.87 508.284485
13.88 515.939453
13.89 525.449951
13.90 552.824524
13.91 558.671692
13.92 560.677734
13.93 566.052734
13.94 567.004639
13.95 569.836731
13.96 584.420471
13.97 599.211548
13.98 610.991821
13.99 615.755005
14.00 620.227478
14.01 613.445923
14.02 602.519836
14.03 604.132996
14.04 615.664185
14.05 614.560913
14.06 614.241272
14.07 628.845886
14.08 628.945679
14.09 605.93811
14.10 588.379456
14.11 582.037659
14.12 591.064331
14.13 591.427246
14.14 585.379761
14.15 579.215881
14.16 569.872559
14.17 557.124023
14.18 540.096008
14.19 533.116699
14.20 526.259888
14.21 508.861115
14.22 493.23175
14.23 482.482849
14.24 476.793396
14.25 468.441803
14.26 454.206635
14.27 458.050171
14.28 445.181519
14.29 421.633423
14.30 402.149811
14.31 397.625519
14.32 390.293365
14.33 382.56662
14.34 373.089447
14.35 377.063873
14.36 374.105499
14.37 358.473022
14.38 350.623047
14.39 352.392944
14.40 353.140381
14.41 357.798767
14.42 357.581512
14.43 349.537048
14.44 349.8638
14.45 351.428741
14.46 345.909332
14.47 343.137054
14.48 355.85791
14.49 362.525879
14.50 358.04538
14.51 349.600433
14.52 340.852386
14.53 332.222626
14.54 333.859955
14.55 332.146545
14.56 324.516052
14.57 321.516327
14.58 329.206299
14.59 336.308411
14.60 326.381409
14.61 314.121979
14.62 307.955566
14.63 322.069214
14.64 333.411072
14.65 330.817169
14.66 328.719971
14.67 319.760956
14.68 323.075165
14.69 327.521332
14.70 330.702911
14.71 329.432983
14.72 324.135376
14.73 323.149628
14.74 326.426544
14.75 327.776062
14.76 322.239624
14.77 318.38324
14.78 324.178223
14.79 328.78653
14.80 328.153809
14.81 327.608063
14.82 333.120148
14.83 342.222137
14.84 349.405151
14.85 345.621887
14.86 337.162537
14.87 325.566803
14.88 319.391327
14.89 324.02475
14.90 336.390228
14.91 341.35675
14.92 343.451691
14.93 347.72052
14.94 343.735626
14.95 345.02301
14.96 352.366699
14.97 352.123077
14.98 348.209351
14.99 348.71402
15.00 344.321655
15.01 337.031982
15.02 347.643036
15.03 352.965637
15.04 356.519592
15.05 361.104248
15.06 360.685791
15.07 365.442474
15.08 369.96347
15.09 364.216156
15.10 355.859863
15.11 356.153229
15.12 366.387115
15.13 364.667175
15.14 357.930206
15.15 360.696503
15.16 372.2211
15.17 381.748749
15.18 381.65741
15.19 385.056458
15.20 390.154816
15.21 392.971039
15.22 396.288788
15.23 404.111755
15.24 407.371735
15.25 415.107941
15.26 423.06781
15.27 418.240387
15.28 412.813232
15.29 411.870209
15.30 405.337158
15.31 404.666992
15.32 417.908081
15.33 429.522217
15.34 436.349792
15.35 435.012756
15.36 431.021545
15.37 429.157623
15.38 433.374451
15.39 432.870911
15.40 447.721191
15.41 461.675079
15.42 470.114502
15.43 473.095398
15.44 466.394775
15.45 464.540863
15.46 458.299561
15.47 456.676178
15.48 460.712646
15.49 462.065338
15.50 463.20816
15.51 462.699402
15.52 464.228729
15.53 470.665619
15.54 465.977753
15.55 456.440491
15.56 454.733734
15.57 456.072784
15.58 452.850311
15.59 449.23349
15.60 443.456207
15.61 436.371521
15.62 437.455933
15.63 434.057739
15.64 430.256226
15.65 420.047668
15.66 412.172852
15.67 413.546997
15.68 407.93457
15.69 406.175385
15.70 409.673706
15.71 411.507507
15.72 405.86377
15.73 405.994324
15.74 399.49881
15.75 385.328064
15.76 380.307953
15.77 378.954834
15.78 377.525635
15.79 374.494446
15.80 381.819031
15.81 393.128906
15.82 389.354462
15.83 378.537415
15.84 375.287781
15.85 369.025421
15.86 363.860291
15.87 363.947784
15.88 363.052734
15.89 365.037048
15.90 364.504578
15.91 362.709595
15.92 359.415405
15.93 357.595184
15.94 360.199188
15.95 363.498505
15.96 366.580627
15.97 371.223572
15.98 374.230957
15.99 374.813568
16.00 366.166565
16.01 356.718201
16.02 346.899017
16.03 343.861298
16.04 342.995697
16.05 342.677643
16.06 347.413147
16.07 345.10733
16.08 344.154572
16.09 345.63504
16.10 339.17215
16.11 336.456116
16.12 335.716217
16.13 334.128448
16.14 332.810272
16.15 340.296082
16.16 346.398865
16.17 339.913788
16.18 339.194763
16.19 346.538788
16.20 347.868378
16.21 342.136841
16.22 344.921967
16.23 347.608276
16.24 348.450043
16.25 351.841522
16.26 355.085754
16.27 350.457672
16.28 343.743958
16.29 348.872467
16.30 353.986664
16.31 350.396881
16.32 349.929779
16.33 346.443665
16.34 341.518555
16.35 343.748322
16.36 347.683563
16.37 347.432587
16.38 344.043884
16.39 341.641998
16.40 342.853699
16.41 338.313019
16.42 344.633087
16.43 356.966339
16.44 357.691132
16.45 355.33786
16.46 353.086914
16.47 345.921143
16.48 336.361664
16.49 335.525726
16.50 340.573608
16.51 334.309387
16.52 340.726532
16.53 357.943726
16.54 358.492828
16.55 352.977875
16.56 348.152618
16.57 348.150116
16.58 360.80603
16.59 365.638367
16.60 357.24649
16.61 350.429901
16.62 348.169464
16.63 343.703705
16.64 352.078857
16.65 362.12323
16.66 355.763702
16.67 351.539032
16.68 353.029846
16.69 356.67749
16.70 360.848602
16.71 361.789185
16.72 361.371094
16.73 360.17511
16.74 365.047333
16.75 369.214539
16.76 367.806976
16.77 360.945801
16.78 356.443756
16.79 353.705109
16.80 352.227295
16.81 353.135681
16.82 353.110077
16.83 347.086121
16.84 352.642883
16.85 366.319794
16.86 371.681854
16.87 371.159912
16.88 371.513763
16.89 369.022888
16.90 359.783875
16.91 358.578583
16.92 360.071106
16.93 358.236725
16.94 360.028503
16.95 358.966675
16.96 356.562561
16.97 357.605072
16.98 356.43869
16.99 349.286377
17.00 350.387573
17.01 365.97522
17.02 373.474945
17.03 370.008331
17.04 363.031281
17.05 362.559357
17.06 360.842529
17.07 362.469299
17.08 373.261536
17.09 371.353241
17.10 365.036591
17.11 365.320068
17.12 361.452789
17.13 359.546295
17.14 365.026733
17.15 372.108582
17.16 372.746796
17.17 376.843201
17.18 375.429718
17.19 368.593475
17.20 363.693268
17.21 362.609161
17.22 368.667023
17.23 375.316895
17.24 366.453827
17.25 359.713989
17.26 367.295532
17.27 364.240204
17.28 363.102081
17.29 363.544647
17.30 359.672668
17.31 359.187286
17.32 366.770264
17.33 371.842255
17.34 370.019226
17.35 365.973602
17.36 368.850677
17.37 370.051758
17.38 367.363037
17.39 363.264313
17.40 360.195862
17.41 370.948181
17.42 377.788879
17.43 380.085052
17.44 380.629333
17.45 373.968262
17.46 374.993622
17.47 380.963257
17.48 373.653168
17.49 369.565094
17.50 370.445557
17.51 380.783905
17.52 388.361389
17.53 383.886017
17.54 376.162933
17.55 372.97406
17.56 372.663239
17.57 364.993286
17.58 362.611481
17.59 366.963409
17.60 366.469971
17.61 365.583466
17.62 369.772888
17.63 372.704529
17.64 372.934998
17.65 369.920929
17.66 368.706451
17.67 372.804413
17.68 378.54718
17.69 377.039795
17.70 388.779205
17.71 394.200348
17.72 383.977356
17.73 373.87442
17.74 376.663239
17.75 381.165009
17.76 382.723053
17.77 385.692963
17.78 389.787384
17.79 393.753815
17.80 396.510406
17.81 399.923767
17.82 399.439423
17.83 394.387512
17.84 391.033386
17.85 391.585144
17.86 391.969879
17.87 391.915344
17.88 392.107391
17.89 386.173218
17.90 380.577118
17.91 378.489777
17.92 375.597382
17.93 380.810699
17.94 386.658905
17.95 390.764832
17.96 395.399231
17.97 401.221252
17.98 402.814728
17.99 395.591125
18.00 397.263306
18.01 405.330536
18.02 408.320068
18.03 405.668488
18.04 398.180908
18.05 401.325714
18.06 406.99353
18.07 410.981445
18.08 410.953827
18.09 405.886353
18.10 395.799164
18.11 387.432068
18.12 389.182098
18.13 389.847076
18.14 394.687439
18.15 398.812531
18.16 398.775269
18.17 395.950531
18.18 397.890747
18.19 402.592133
18.20 403.338074
18.21 404.150909
18.22 407.992676
18.23 400.631714
18.24 394.145355
18.25 404.9646
18.26 412.018616
18.27 412.642609
18.28 415.418365
18.29 409.681213
18.30 408.528351
18.31 408.596832
18.32 408.448181
18.33 415.927246
18.34 420.617157
18.35 415.325745
18.36 407.891693
18.37 404.059265
18.38 401.411804
18.39 397.364136
18.40 396.818542
18.41 393.401886
18.42 399.628082
18.43 404.272034
18.44 395.594147
18.45 399.55011
18.46 411.617859
18.47 412.280609
18.48 413.475128
18.49 420.331818
18.50 422.699585
18.51 415.177338
18.52 415.589325
18.53 418.724945
18.54 421.934418
18.55 426.550842
18.56 419.904663
18.57 407.891479
18.58 406.492249
18.59 411.099182
18.60 416.961212
18.61 420.538635
18.62 418.766418
18.63 419.636444
18.64 424.46228
18.65 426.590698
18.66 422.613037
18.67 415.82373
18.68 418.14566
18.69 425.237274
18.70 426.375
18.71 425.313232
18.72 423.139771
18.73 420.310852
18.74 422.356018
18.75 420.072662
18.76 419.027313
18.77 419.660339
18.78 423.658325
18.79 428.261017
18.80 424.279053
18.81 432.638489
18.82 443.150024
18.83 441.098633
18.84 439.675262
18.85 441.807404
18.86 433.697723
18.87 427.449402
18.88 426.590698
18.89 430.990967
18.90 436.688141
18.91 428.134888
18.92 431.370178
18.93 437.533051
18.94 430.800568
18.95 429.138031
18.96 436.608612
18.97 441.633331
18.98 440.131653
18.99 432.988037
19.00 430.115753
19.01 434.440155
19.02 435.156525
19.03 433.735474
19.04 437.140228
19.05 440.018738
19.06 430.513092
19.07 429.968109
19.08 440.053589
19.09 440.962311
19.10 431.243103
19.11 432.753815
19.12 438.703918
19.13 440.29068
19.14 448.3172
19.15 455.458801
19.16 459.396301
19.17 457.554077
19.18 448.267151
19.19 446.593201
19.20 452.022461
19.21 449.825378
19.22 445.901581
19.23 444.247009
19.24 444.610596
19.25 448.175476
19.26 448.055023
19.27 450.921143
19.28 448.339966
19.29 449.255249
19.30 444.103882
19.31 442.177429
19.32 444.760986
19.33 443.302612
19.34 441.386627
19.35 441.985321
19.36 446.60907
19.37 448.24231
19.38 449.121918
19.39 449.743988
19.40 443.855499
19.41 442.51297
19.42 447.848846
19.43 449.494476
19.44 444.157013
19.45 443.106537
19.46 450.999664
19.47 459.006104
19.48 453.369415
19.49 452.646576
19.50 456.185913
19.51 458.71106
19.52 461.474823
19.53 463.382141
19.54 462.739899
19.55 466.320679
19.56 471.831543
19.57 471.81076
19.58 470.008698
19.59 468.996307
19.60 470.024109
19.61 474.025452
19.62 469.198578
19.63 465.018433
19.64 470.938629
19.65 480.360657
19.66 477.20224
19.67 464.448364
19.68 461.108673
19.69 465.397583
19.70 472.615753
19.71 473.95578
19.72 478.502319
19.73 477.055328
19.74 476.096649
19.75 477.024597
19.76 471.913483
19.77 478.467834
19.78 479.452667
19.79 478.839478
19.80 481.80072
19.81 475.899811
19.82 472.508209
19.83 472.124695
19.84 474.338715
19.85 487.094452
19.86 495.52887
19.87 490.941101
19.88 481.121948
19.89 478.919556
19.90 487.45282
19.91 490.545837
19.92 487.534454
19.93 486.906006
19.94 497.529297
19.95 508.480682
19.96 503.191895
19.97 492.671997
19.98 492.93045
19.99 493.869934
20.00 492.261475
20.01 487.113251
20.02 481.627258
20.03 483.529144
20.04 490.050964
20.05 491.987976
20.06 491.648041
20.07 489.282379
20.08 487.062561
20.09 489.470734
20.10 496.539215
20.11 503.317566
20.12 506.979797
20.13 504.367645
20.14 499.517181
20.15 494.501648
20.16 492.938568
20.17 494.532837
20.18 491.417084
20.19 493.706604
20.20 496.338074
20.21 493.535217
20.22 493.44397
20.23 498.407166
20.24 501.215942
20.25 502.65799
20.26 496.730896
20.27 499.547668
20.28 499.456482
20.29 501.130829
20.30 503.378235
20.31 497.115936
20.32 497.164337
20.33 494.91864
20.34 495.559937
20.35 502.640533
20.36 515.902039
20.37 516.357544
20.38 507.604736
20.39 512.01416
20.40 511.382904
20.41 516.371216
20.42 519.545044
20.43 506.025208
20.44 505.79306
20.45 511.588928
20.46 505.397217
20.47 502.437836
20.48 500.834564
20.49 498.693787
20.50 509.383606
20.51 520.97876
20.52 518.106262
20.53 510.469116
20.54 509.809052
20.55 508.34903
20.56 511.917755
20.57 513.242065
20.58 512.895081
20.59 513.854187
20.60 520.034973
20.61 515.729431
20.62 514.934631
20.63 520.818237
20.64 522.378296
20.65 519.274048
20.66 514.081726
20.67 511.526184
20.68 512.203308
20.69 514.189819
20.70 504.805023
20.71 504.131836
20.72 512.947449
20.73 518.050964
20.74 527.664795
20.75 528.982056
20.76 526.065674
20.77 530.430664
20.78 527.966736
20.79 529.332397
20.80 535.756714
20.81 543.52655
20.82 544.211609
20.83 544.632263
20.84 547.550903
20.85 539.858337
20.86 533.967957
20.87 539.161682
20.88 535.614563
20.89 527.984741
20.90 535.55188
20.91 542.590271
20.92 539.421631
20.93 535.008301
20.94 538.425781
20.95 534.54071
20.96 528.13385
20.97 529.98938
20.98 536.672485
20.99 544.32312
21.00 539.453552
21.01 535.442566
21.02 530.283936
21.03 533.703369
21.04 543.963928
21.05 538.99292
21.06 535.209717
21.07 547.599243
21.08 547.358032
21.09 550.075745
21.10 558.913696
21.11 556.657593
21.12 550.68042
21.13 550.296387
21.14 540.564453
21.15 533.610168
21.16 539.480347
21.17 543.899292
21.18 541.982727
21.19 537.930847
21.20 530.722229
21.21 535.132141
21.22 547.149658
21.23 553.492126
21.24 555.190186
21.25 562.346619
21.26 559.771851
21.27 555.178955
21.28 550.582153
21.29 554.061707
21.30 560.072388
21.31 555.806946
21.32 551.008301
21.33 549.315674
21.34 545.889648
21.35 544.331299
21.36 541.795776
21.37 537.581604
21.38 537.561951
21.39 541.77655
21.40 558.875549
21.41 567.716675
21.42 563.50177
21.43 565.505676
21.44 568.583679
21.45 567.651733
21.46 569.780579
21.47 579.119202
21.48 578.852356
21.49 577.739868
21.50 576.295959
21.51 571.297791
21.52 564.927307
21.53 554.616211
21.54 562.323425
21.55 566.569702
21.56 571.063721
21.57 580.54071
21.58 589.211731
21.59 594.421936
21.60 591.373657
21.61 593.226685
21.62 588.952942
21.63 586.267517
21.64 595.308044
21.65 597.188293
21.66 586.340271
21.67 584.295166
21.68 585.969421
21.69 584.441589
21.70 588.097717
21.71 591.576843
21.72 594.068909
21.73 600.468018
21.74 601.004333
21.75 595.574341
21.76 597.017761
21.77 603.866272
21.78 600.115723
21.79 597.177002
21.80 601.938477
21.81 601.078125
21.82 600.3797
21.83 607.56012
21.84 607.84375
21.85 614.63031
21.86 629.222168
21.87 626.494019
21.88 622.500183
21.89 621.937134
21.90 616.583618
21.91 615.196289
21.92 626.747803
21.93 628.542908
21.94 623.651794
21.95 630.218994
21.96 639.057495
21.97 636.870605
21.98 625.991943
21.99 625.923706
22.00 631.360413
22.01 631.887756
22.02 629.402039
22.03 631.512329
22.04 632.660156
22.05 631.724792
22.06 632.037048
22.07 624.630615
22.08 623.777954
22.09 624.673462
22.10 616.189331
22.11 609.445496
22.12 618.67218
22.13 618.821411
22.14 613.924866
22.15 620.381897
22.16 632.033386
22.17 631.218689
22.18 617.859863
22.19 622.55542
22.20 635.968201
22.21 630.165405
22.22 625.461182
22.23 623.798157
22.24 618.888428
22.25 614.857727
22.26 617.341736
22.27 614.153076
22.28 606.041138
22.29 604.020386
22.30 610.840881
22.31 616.127502
22.32 611.414001
22.33 607.958618
22.34 613.645935
22.35 611.40271
22.36 609.442261
22.37 609.714478
22.38 605.827087
22.39 609.286682
22.40 610.499084
22.41 610.330627
22.42 604.083923
22.43 601.937988
22.44 612.220215
22.45 611.70282
22.46 604.396362
22.47 603.476746
22.48 609.229187
22.49 612.11377
22.50 612.891418
22.51 613.691895
22.52 621.240845
22.53 619.055847
22.54 615.28833
22.55 610.630432
22.56 612.297668
22.57 616.822998
22.58 609.441956
22.59 601.658569
22.60 600.224915
22.61 598.655518
22.62 599.923523
22.63 606.385681
22.64 609.454834
22.65 615.646606
22.66 618.342834
22.67 612.148315
22.68 604.511902
22.69 607.052429
22.70 611.44104
22.71 611.123474
22.72 609.916077
22.73 611.24353
22.74 616.143616
22.75 610.104431
22.76 606.462708
22.77 612.124634
22.78 616.324219
22.79 622.211426
22.80 619.92981
22.81 612.085144
22.82 609.830261
22.83 611.04895
22.84 618.151367
22.85 626.664307
22.86 625.34259
22.87 627.839966
22.88 633.136353
22.89 634.584106
22.90 631.994934
22.91 633.106384
22.92 637.046204
22.93 631.590332
22.94 631.63385
22.95 633.824463
22.96 630.789673
22.97 631.371704
22.98 639.457153
22.99 639.200256
23.00 637.528015
23.01 634.133728
23.02 625.246216
23.03 628.652405
23.04 632.551636
23.05 630.224854
23.06 625.213623
23.07 618.644714
23.08 616.458069
23.09 625.628601
23.10 633.905579
23.11 635.107788
23.12 641.868103
23.13 643.331604
23.14 635.812561
23.15 633.072021
23.16 635.243042
23.17 632.370422
23.18 629.691345
23.19 638.631165
23.20 643.009521
23.21 644.635437
23.22 638.461914
23.23 632.875183
23.24 632.701416
23.25 641.42804
23.26 648.480835
23.27 642.264343
23.28 642.864746
23.29 644.571472
23.30 644.857605
23.31 645.473206
23.32 650.599854
23.33 649.281128
23.34 643.710876
23.35 642.400757
23.36 641.084656
23.37 638.585022
23.38 639.346802
23.39 635.293396
23.40 630.044617
23.41 634.433289
23.42 632.724548
23.43 631.932983
23.44 634.420593
23.45 632.722046
23.46 631.500427
23.47 635.361938
23.48 642.856628
23.49 645.390259
23.50 642.864807
23.51 638.965942
23.52 636.332336
23.53 633.186523
23.54 637.228638
23.55 637.710022
23.56 644.717041
23.57 641.240417
23.58 636.600159
23.59 644.859192
23.60 648.812195
23.61 649.201965
23.62 658.728027
23.63 652.428223
23.64 640.50116
23.65 633.334473
23.66 635.345276
23.67 641.932434
23.68 636.97345
23.69 633.683472
23.70 641.148254
23.71 651.298035
23.72 647.317627
23.73 642.832825
23.74 637.950623
23.75 627.936218
23.76 620.919067
23.77 632.443115
23.78 643.059082
23.79 643.813599
23.80 644.44281
23.81 637.162109
23.82 629.389587
23.83 631.489197
23.84 630.140198
23.85 628.322571
23.86 626.201904
23.87 620.960083
23.88 626.763794
23.89 639.421631
23.90 638.847778
23.91 634.06781
23.92 637.038757
23.93 638.965759
23.94 642.256042
23.95 644.202759
23.96 643.1427
23.97 639.48468
23.98 638.835571
23.99 647.309143
24.00 648.458191
24.01 647.296692
24.02 652.256287
24.03 646.716492
24.04 651.422241
24.05 660.073364
24.06 663.842712
24.07 657.506897
24.08 646.373291
24.09 642.332947
24.10 650.910583
24.11 656.892883
24.12 651.519104
24.13 642.037903
24.14 637.302673
24.15 643.381104
24.16 647.762268
24.17 649.500916
24.18 644.879883
24.19 643.832214
24.20 651.358337
24.21 659.029114
24.22 659.774719
24.23 646.435913
24.24 642.008179
24.25 646.501465
24.26 657.379639
24.27 663.494019
24.28 664.609802
24.29 665.864807
24.30 662.323425
24.31 653.858948
24.32 646.092163
24.33 644.427185
24.34 649.763611
24.35 652.23053
24.36 656.292786
24.37 668.618652
24.38 670.349426
24.39 673.653198
24.40 672.43811
24.41 666.859375
24.42 668.768066
24.43 671.151001
24.44 659.307922
24.45 650.54187
24.46 646.049255
24.47 649.174805
24.48 659.948792
24.49 663.557068
24.50 653.875916
24.51 650.046448
24.52 653.544495
24.53 653.370239
24.54 655.640442
24.55 663.450867
24.56 669.280029
24.57 666.422668
24.58 657.128906
24.59 648.672241
24.60 642.959351
24.61 649.945801
24.62 658.123535
24.63 666.976135
24.64 671.868896
24.65 661.362183
24.66 655.939636
24.67 658.963257
24.68 649.097534
24.69 646.693909
24.70 654.016846
24.71 652.458801
24.72 646.269531
24.73 648.200134
24.74 649.428101
24.75 645.954102
24.76 646.922546
24.77 646.291931
24.78 646.79541
24.79 652.750305
24.80 654.804016
24.81 652.560669
24.82 654.250793
24.83 659.217407
24.84 660.835876
24.85 651.655823
24.86 640.500366
24.87 636.525696
24.88 633.295776
24.89 639.862915
24.90 653.824158
24.91 660.019104
24.92 648.980957
24.93 642.29303
24.94 649.522766
24.95 654.598572
24.96 658.502197
24.97 655.432983
24.98 651.71405
24.99 652.902893
25.00 653.784851
25.01 653.325378
25.02 649.938965
25.03 649.535339
25.04 651.632019
25.05 647.396851
25.06 650.639221
25.07 654.754333
25.08 653.215393
25.09 653.177246
25.10 652.530762
25.11 648.708252
25.12 643.19519
25.13 641.956848
25.14 642.026611
25.15 642.407532
25.16 643.472534
25.17 645.903564
25.18 651.713501
25.19 649.205811
25.20 645.382568
25.21 644.195313
25.22 651.854065
25.23 660.007935
25.24 656.866943
25.25 653.978455
25.26 652.161499
25.27 652.723633
25.28 646.769226
25.29 641.740112
25.30 649.552795
25.31 652.003052
25.32 647.326843
25.33 647.520264
25.34 646.150513
25.35 643.303589
25.36 641.95166
25.37 646.45105
25.38 649.848206
25.39 644.807129
25.40 642.150574
25.41 649.742249
25.42 653.218506
25.43 651.496948
25.44 649.716736
25.45 658.553162
25.46 660.965271
25.47 653.264648
25.48 649.701416
25.49 645.433716
25.50 644.362061
25.51 646.566528
25.52 651.03241
25.53 651.827271
25.54 643.923218
25.55 641.483643
25.56 646.441406
25.57 650.784302
25.58 646.739075
25.59 650.267334
25.60 651.346558
25.61 644.523376
25.62 644.936096
25.63 645.350769
25.64 652.728638
25.65 658.258118
25.66 647.35791
25.67 644.494507
25.68 647.537292
25.69 648.332458
25.70 645.308838
25.71 643.937012
25.72 643.791504
25.73 643.261597
25.74 656.155701
25.75 664.301392
25.76 659.372864
25.77 654.026001
25.78 654.797241
25.79 653.707825
25.80 656.765076
25.81 657.715027
25.82 645.052368
25.83 635.224915
25.84 643.326172
25.85 651.793823
25.86 646.589233
25.87 640.45697
25.88 639.931274
25.89 641.220886
25.90 650.287903
25.91 659.100403
25.92 660.245178
25.93 658.964111
25.94 660.993164
25.95 657.335999
25.96 653.864136
25.97 649.472229
25.98 646.835388
25.99 644.921509
26.00 640.813477
26.01 640.142639
26.02 642.41156
26.03 638.421631
26.04 644.87616
26.05 645.360718
26.06 645.15741
26.07 645.456299
26.08 644.505249
26.09 649.143188
26.10 653.506836
26.11 660.270874
26.12 665.714905
26.13 654.642334
26.14 649.426086
26.15 648.961914
26.16 646.444885
26.17 644.042175
26.18 652.005554
26.19 653.330872
26.20 645.861694
26.21 638.940491
26.22 635.050476
26.23 642.178162
26.24 648.505188
26.25 649.31311
26.26 656.436951
26.27 656.690918
26.28 655.909851
26.29 660.687317
26.30 657.744995
26.31 648.074646
26.32 642.619202
26.33 640.333618
26.34 634.610535
26.35 632.738892
26.36 640.679993
26.37 642.294373
26.38 646.699646
26.39 654.006958
26.40 653.477173
26.41 662.365173
26.42 669.644226
26.43 657.990662
26.44 645.690491
26.45 640.79425
26.46 637.740723
26.47 638.721924
26.48 636.251465
26.49 631.863159
26.50 630.939392
26.51 633.657959
26.52 638.709045
26.53 638.171448
26.54 641.376648
26.55 647.93811
26.56 653.554138
26.57 651.261475
26.58 642.744385
26.59 634.647583
26.60 635.045166
26.61 640.826477
26.62 635.434753
26.63 623.810364
26.64 627.970581
26.65 634.679504
26.66 629.042114
26.67 633.549988
26.68 643.799805
26.69 642.365906
26.70 634.377563
26.71 632.416077
26.72 628.321045
26.73 627.186584
26.74 640.709656
26.75 646.350464
26.76 648.866333
26.77 649.49231
26.78 643.935181
26.79 642.835938
26.80 640.12677
26.81 633.696045
26.82 632.048767
26.83 628.878967
26.84 634.354919
26.85 646.289429
26.86 644.866333
26.87 639.779663
26.88 647.26593
26.89 643.586487
26.90 644.587097
26.91 652.051147
26.92 639.69812
26.93 629.524658
26.94 628.309937
26.95 637.408813
26.96 644.235229
26.97 653.291199
26.98 663.62323
26.99 662.018188
27.00 654.462158
27.01 657.59613
27.02 654.583435
27.03 645.270203
27.04 642.084412
27.05 643.732788
27.06 644.370117
27.07 644.552856
27.08 643.76532
27.09 643.733154
27.10 645.81189
27.11 641.582458
27.12 634.51178
27.13 629.562805
27.14 634.226563
27.15 641.128479
27.16 637.30957
27.17 633.225952
27.18 632.183105
27.19 626.463989
27.20 628.459961
27.21 635.762329
27.22 641.381714
27.23 638.985229
27.24 641.412048
27.25 641.188843
27.26 641.255432
27.27 635.055542
27.28 629.594421
27.29 625.926575
27.30 629.167053
27.31 635.819153
27.32 632.977356
27.33 625.975342
27.34 628.826843
27.35 630.840454
27.36 633.340088
27.37 634.305481
27.38 630.224243
27.39 632.806763
27.40 639.388672
27.41 639.617188
27.42 629.856079
27.43 625.602478
27.44 635.444336
27.45 637.136292
27.46 635.856567
27.47 640.032227
27.48 641.114868
27.49 637.063171
27.50 629.598694
27.51 629.286133
27.52 636.713501
27.53 636.897583
27.54 632.737061
27.55 631.916382
27.56 636.143066
27.57 631.638184
27.58 628.293701
27.59 622.429138
27.60 621.157715
27.61 621.147766
27.62 626.545471
27.63 628.390442
27.64 634.485291
27.65 642.335388
27.66 645.31134
27.67 639.601563
27.68 635.23114
27.69 636.845825
27.70 640.795288
27.71 636.127197
27.72 635.342957
27.73 634.225708
27.74 636.022156
27.75 644.20813
27.76 647.173035
27.77 644.954834
27.78 640.856201
27.79 631.963013
27.80 632.026428
27.81 631.332581
27.82 641.638794
27.83 649.56781
27.84 651.710693
27.85 652.242676
27.86 655.326904
27.87 659.133423
27.88 657.331909
27.89 646.373474
27.90 635.980042
27.91 630.480652
27.92 635.528687
27.93 651.730164
27.94 657.50708
27.95 656.306213
27.96 647.926086
27.97 655.914917
27.98 672.844055
27.99 678.706055
28.00 682.452881
28.01 677.434509
28.02 676.278809
28.03 674.282104
28.04 670.083191
28.05 671.678223
28.06 677.150146
28.07 681.776855
28.08 682.365112
28.09 684.252747
28.10 693.986267
28.11 699.803955
28.12 698.637817
28.13 698.813965
28.14 702.964233
28.15 707.342773
28.16 709.925354
28.17 711.633789
28.18 711.229187
28.19 708.12854
28.20 711.970947
28.21 719.297913
28.22 728.363098
28.23 730.737732
28.24 743.217957
28.25 751.46167
28.26 757.643005
28.27 760.038635
28.28 750.376221
28.29 759.531555
28.30 771.300049
28.31 780.189819
28.32 785.276001
28.33 781.788452
28.34 782.600159
28.35 783.934387
28.36 781.954956
28.37 790.043091
28.38 791.318298
28.39 778.275513
28.40 766.404663
28.41 766.929871
28.42 758.197205
28.43 754.158203
28.44 753.146484
28.45 751.143005
28.46 753.462097
28.47 754.291138
28.48 748.447449
28.49 746.023743
28.50 745.543335
28.51 740.268066
28.52 729.099915
28.53 726.156372
28.54 723.782898
28.55 713.826599
28.56 706.663391
28.57 703.893433
28.58 702.447388
28.59 702.353638
28.60 695.825684
28.61 688.877441
28.62 679.809937
28.63 674.250854
28.64 668.439392
28.65 666.430847
28.66 669.663757
28.67 675.033875
28.68 671.661255
28.69 661.914551
28.70 652.153931
28.71 650.866821
28.72 653.704773
28.73 656.407104
28.74 657.806091
28.75 657.657288
28.76 648.964233
28.77 641.825745
28.78 641.141602
28.79 642.336121
28.80 640.660095
28.81 635.313049
28.82 631.575439
28.83 628.796753
28.84 627.559326
28.85 629.188538
28.86 634.452271
28.87 636.680847
28.88 631.375244
28.89 634.965149
28.90 632.761108
28.91 633.426636
28.92 625.396423
28.93 622.26001
28.94 625.286865
28.95 621.262695
28.96 616.402405
28.97 612.865051
28.98 607.968384
28.99 612.307922
29.00 618.967834
29.01 618.685059
29.02 612.349426
29.03 606.234192
29.04 611.047668
29.05 620.234863
29.06 622.529053
29.07 618.542297
29.08 609.2724
29.09 605.098999
29.10 608.477417
29.11 614.827454
29.12 614.653992
29.13 611.502808
29.14 611.721436
29.15 617.291321
29.16 617.274902
29.17 617.0625
29.18 617.422241
29.19 614.741028
29.20 608.913696
29.21 611.019897
29.22 612.570129
29.23 612.966919
29.24 614.559326
29.25 614.088501
29.26 609.389587
29.27 598.617859
29.28 598.474792
29.29 602.055298
29.30 593.994446
29.31 593.496338
29.32 601.239258
29.33 606.842468
29.34 603.503906
29.35 604.032104
29.36 606.164429
29.37 603.954651
29.38 601.95636
29.39 605.833374
29.40 613.492676
29.41 616.839233
29.42 613.619507
29.43 613.294983
29.44 609.786133
29.45 607.041565
29.46 604.570374
29.47 601.969543
29.48 596.321655
29.49 591.855469
29.50 594.58374
29.51 593.532349
29.52 593.562683
29.53 598.256714
29.54 600.190063
29.55 603.096924
29.56 603.816772
29.57 602.567566
29.58 599.856812
29.59 602.367126
29.60 608.946411
29.61 612.590393
29.62 609.378113
29.63 603.484802
29.64 596.852173
29.65 595.163452
29.66 594.941284
29.67 596.763
29.68 599.936951
29.69 599.405029
29.70 598.82666
29.71 602.640869
29.72 599.680847
29.73 591.326721
29.74 593.144348
29.75 596.594238
29.76 590.665894
29.77 587.050476
29.78 593.082092
29.79 598.588501
29.80 600.314575
29.81 597.590271
29.82 602.129272
29.83 601.506226
29.84 599.973694
29.85 598.678406
29.86 594.884766
29.87 593.645752
29.88 593.63916
29.89 594.992371
29.90 591.402161
29.91 598.303955
29.92 599.546021
29.93 589.652954
29.94 585.900818
29.95 593.550659
29.96 590.844849
29.97 593.168701
29.98 603.219482
29.99 605.870422
30.00 603.43158
30.01 599.463318
30.02 590.412964
30.03 587.670959
30.04 594.208679
30.05 596.011475
30.06 589.664673
30.07 588.163025
30.08 593.637268
30.09 603.236084
30.10 604.244751
30.11 602.597595
30.12 601.873291
30.13 604.871948
30.14 599.733398
30.15 585.580994
30.16 582.561768
30.17 591.834595
30.18 594.819702
30.19 599.286682
30.20 591.157959
30.21 578.22937
30.22 579.406921
30.23 592.058105
30.24 598.032532
30.25 590.882019
30.26 584.853516
30.27 585.636719
30.28 586.145996
30.29 592.915344
30.30 595.754761
30.31 588.161743
30.32 588.97522
30.33 593.710022
30.34 586.901062
30.35 589.511047
30.36 599.963379
30.37 601.462585
30.38 601.824463
30.39 604.268738
30.40 602.978516
30.41 598.207214
30.42 597.851807
30.43 592.547791
30.44 587.037964
30.45 584.288452
30.46 587.513245
30.47 587.689636
30.48 583.080872
30.49 586.298035
30.50 589.979248
30.51 592.021973
30.52 594.517944
30.53 599.212646
30.54 604.675842
30.55 603.433411
30.56 598.529419
30.57 590.827515
30.58 586.110901
30.59 589.468201
30.60 593.762024
30.61 593.593384
30.62 592.749939
30.63 590.856262
30.64 587.291809
30.65 584.581177
30.66 592.9552
30.67 596.16925
30.68 594.102783
30.69 591.179749
30.70 592.183777
30.71 593.242493
30.72 593.530396
30.73 596.712219
30.74 590.579468
30.75 586.999084
30.76 584.450562
30.77 577.786194
30.78 579.279968
30.79 579.266174
30.80 587.395508
30.81 592.353516
30.82 590.687927
30.83 594.941223
30.84 596.213379
30.85 593.656921
30.86 590.766357
30.87 592.887756
30.88 595.332886
30.89 598.013672
30.90 596.893799
30.91 600.411987
30.92 604.065186
30.93 602.75946
30.94 602.334106
30.95 605.193909
30.96 603.714539
30.97 599.32489
30.98 600.739319
30.99 607.706299
31.00 608.100281
31.01 608.827332
31.02 609.68335
31.03 610.17572
31.04 609.961914
31.05 607.598572
31.06 604.76593
31.07 605.432434
31.08 606.023804
31.09 607.431458
31.10 611.51178
31.11 618.767456
31.12 620.681824
31.13 610.294067
31.14 604.690552
31.15 608.883545
31.16 617.951843
31.17 624.281799
31.18 623.002502
31.19 618.023254
31.20 624.448303
31.21 630.723877
31.22 627.887207
31.23 627.067139
31.24 635.904724
31.25 634.866516
31.26 629.525879
31.27 626.387756
31.28 630.009827
31.29 635.69281
31.30 640.502747
31.31 635.630737
31.32 630.980713
31.33 634.636475
31.34 634.920166
31.35 628.939087
31.36 631.717529
31.37 641.299744
31.38 644.629456
31.39 647.265381
31.40 651.555359
31.41 645.407349
31.42 639.072449
31.43 634.558105
31.44 630.081482
31.45 636.127014
31.46 634.000244
31.47 633.659607
31.48 633.929504
31.49 630.119873
31.50 631.369568
31.51 634.82019
31.52 632.110474
31.53 635.204651
31.54 640.267822
31.55 638.352722
31.56 636.451172
31.57 633.831238
31.58 632.25354
31.59 633.908386
31.60 627.797424
31.61 623.099731
31.62 627.069824
31.63 633.349121
31.64 631.531494
31.65 628.179199
31.66 630.128723
31.67 632.806274
31.68 628.490906
31.69 627.734863
31.70 629.166382
31.71 624.023499
31.72 622.791748
31.73 627.864014
31.74 626.074585
31.75 629.737183
31.76 635.269592
31.77 627.089722
31.78 626.89624
31.79 628.46283
31.80 623.151245
31.81 623.73291
31.82 620.001099
31.83 613.100952
31.84 615.967957
31.85 618.865295
31.86 620.267151
31.87 624.671631
31.88 623.947449
31.89 615.731812
31.90 614.881348
31.91 611.116394
31.92 604.362671
31.93 606.274048
31.94 609.005493
31.95 605.642273
31.96 600.42688
31.97 599.447327
31.98 605.429443
31.99 608.576538
32.00 607.946106
32.01 603.055908
32.02 593.724426
32.03 595.527771
32.04 597.437317
32.05 590.922974
32.06 584.33136
32.07 584.091248
32.08 584.5047
32.09 576.959656
32.10 575.002075
32.11 572.564148
32.12 567.421387
32.13 561.72406
32.14 562.268921
32.15 568.401306
32.16 570.618774
32.17 573.247253
32.18 577.102295
32.19 574.079346
32.20 571.143738
32.21 573.405518
32.22 569.785889
32.23 564.070068
32.24 562.237549
32.25 563.754761
32.26 558.924438
32.27 561.190796
32.28 563.084473
32.29 561.845581
32.30 556.811218
32.31 556.621216
32.32 562.192383
32.33 562.831055
32.34 552.862305
32.35 546.19458
32.36 546.257629
32.37 540.223633
32.38 546.905457
32.39 553.488586
32.40 552.851746
32.41 555.282715
32.42 549.911743
32.43 541.361938
32.44 545.358337
32.45 547.978821
32.46 533.863403
32.47 522.619812
32.48 526.162842
32.49 535.241699
32.50 542.708679
32.51 541.500427
32.52 538.629395
32.53 535.439941
32.54 540.201355
32.55 540.344421
32.56 534.506958
32.57 534.936646
32.58 541.44458
32.59 540.449463
32.60 530.561157
32.61 524.817383
32.62 528.895325
32.63 530.567322
32.64 530.129578
32.65 530.231018
32.66 531.583801
32.67 530.106262
32.68 528.224304
32.69 531.176575
32.70 534.903076
32.71 529.293152
32.72 519.175781
32.73 520.912781
32.74 524.824097
32.75 523.414612
32.76 519.844482
32.77 520.755554
32.78 524.156311
32.79 525.539185
32.80 521.129639
32.81 521.017029
32.82 526.517822
32.83 531.28479
32.84 526.27948
32.85 525.630859
32.86 529.026855
32.87 529.494202
32.88 532.469788
32.89 538.261353
32.90 531.947815
32.91 520.869629
32.92 516.302246
32.93 515.885437
32.94 518.923279
32.95 525.6026
32.96 525.63623
32.97 519.683289
32.98 517.167847
32.99 516.93396
33.00 521.431763
33.01 521.731812
33.02 516.949585
33.03 526.043457
33.04 530.11377
33.05 523.638123
33.06 525.684265
33.07 521.5448
33.08 508.495056
33.09 499.767395
33.10 500.973297
33.11 509.210419
33.12 515.051086
33.13 517.321106
33.14 517.860229
33.15 513.01532
33.16 513.455627
33.17 521.531982
33.18 519.368713
33.19 511.788666
33.20 504.10025
33.21 503.560394
33.22 507.886261
33.23 508.442108
33.24 505.485382
33.25 503.900146
33.26 507.526825
33.27 508.297638
33.28 513.017456
33.29 509.242401
33.30 506.886261
33.31 510.715515
33.32 512.797546
33.33 509.671478
33.34 506.049042
33.35 500.240021
33.36 495.492371
33.37 502.055328
33.38 509.117767
33.39 513.194336
33.40 513.467163
33.41 510.481689
33.42 508.357147
33.43 514.518005
33.44 513.26416
33.45 508.197723
33.46 501.094574
33.47 499.339386
33.48 503.165344
33.49 505.484863
33.50 507.226196
33.51 504.817474
33.52 497.023651
33.53 497.577209
33.54 502.560272
33.55 501.542023
33.56 497.988953
33.57 498.228363
33.58 499.100647
33.59 500.528625
33.60 498.192322
33.61 498.633392
33.62 493.771454
33.63 492.235443
33.64 498.32254
33.65 502.14267
33.66 501.805878
33.67 500.544098
33.68 495.012268
33.69 497.646637
33.70 504.162323
33.71 505.922272
33.72 500.47998
33.73 492.814728
33.74 489.127747
33.75 495.897095
33.76 495.962463
33.77 492.070831
33.78 494.520691
33.79 488.580261
33.80 487.114777
33.81 486.060516
33.82 488.751495
33.83 492.474091
33.84 492.670837
33.85 491.577637
33.86 491.914276
33.87 491.216309
33.88 494.565399
33.89 497.468597
33.90 493.407959
33.91 488.401093
33.92 486.884277
33.93 489.680267
33.94 490.789185
33.95 489.452118
33.96 484.9216
33.97 484.280182
33.98 485.613251
33.99 483.192932
34.00 480.37558
34.01 486.020477
34.02 493.997192
34.03 491.344086
34.04 480.535767
34.05 480.577789
34.06 486.199738
34.07 486.783264
34.08 489.281128
34.09 491.483582
34.10 484.943085
34.11 478.683685
34.12 478.728882
34.13 477.595947
34.14 478.045471
34.15 488.327271
34.16 487.975037
34.17 479.079315
34.18 479.80426
34.19 484.620239
34.20 479.711304
34.21 478.836151
34.22 479.871338
34.23 480.746704
34.24 486.599213
34.25 484.580231
34.26 473.60379
34.27 466.568726
34.28 468.925903
34.29 474.854675
34.30 481.073303
34.31 484.905457
34.32 479.698975
34.33 476.058228
34.34 476.797974
34.35 482.781342
34.36 481.777008
34.37 477.173431
34.38 479.32962
34.39 474.420624
34.40 471.200684
34.41 479.175201
34.42 481.995819
34.43 476.107941
34.44 470.774902
34.45 472.062683
34.46 477.526978
34.47 484.338593
34.48 482.991302
34.49 476.863068
34.50 474.530182
34.51 476.743805
34.52 474.600159
34.53 476.753845
34.54 478.524353
34.55 478.368622
34.56 476.898529
34.57 474.369324
34.58 476.314606
34.59 484.427002
34.60 489.495514
34.61 483.81955
34.62 480.860077
34.63 480.680511
34.64 476.926453
34.65 476.458862
34.66 476.491608
34.67 477.041748
34.68 482.488068
34.69 478.101257
34.70 475.875
34.71 475.577423
34.72 476.667297
34.73 484.229645
34.74 487.827057
34.75 486.593536
34.76 486.786407
34.77 481.775238
34.78 480.985687
34.79 477.61084
34.80 473.578247
34.81 471.836578
34.82 473.25824
34.83 481.764496
34.84 485.979248
34.85 481.653931
34.86 482.335815
34.87 481.802704
34.88 480.987518
34.89 479.749695
34.90 476.461884
34.91 477.17392
34.92 484.571777
34.93 490.930756
34.94 498.242889
34.95 497.756256
34.96 489.664337
34.97 488.829742
34.98 486.472137
34.99 487.668152
35.00 484.942444
35.01 481.816864
35.02 486.036743
35.03 483.259766
35.04 488.137268
35.05 493.465149
35.06 484.795898
35.07 483.117706
35.08 493.414215
35.09 491.197449
35.10 489.206146
35.11 487.467987
35.12 485.841461
35.13 490.593597
35.14 490.525879
35.15 488.509766
35.16 488.93634
35.17 486.710297
35.18 489.924438
35.19 491.499542
35.20 488.522949
35.21 489.111664
35.22 486.580231
35.23 477.646271
35.24 473.503082
35.25 479.537476
35.26 486.498077
35.27 483.670227
35.28 474.497559
35.29 475.560272
35.30 477.888489
35.31 469.586548
35.32 471.348877
35.33 470.89801
35.34 472.319885
35.35 478.271332
35.36 476.129395
35.37 467.231384
35.38 461.939545
35.39 455.484192
35.40 449.915131
35.41 446.609131
35.42 446.320648
35.43 444.958313
35.44 446.985046
35.45 456.500122
35.46 459.24472
35.47 457.524017
35.48 457.795227
35.49 451.209076
35.50 448.558807
35.51 448.481384
35.52 443.349609
35.53 443.156006
35.54 443.806183
35.55 447.920166
35.56 451.051453
35.57 450.933289
35.58 450.24231
35.59 444.924011
35.60 447.214264
35.61 443.144562
35.62 440.052002
35.63 439.835571
35.64 438.322418
35.65 444.094971
35.66 444.816345
35.67 435.805389
35.68 431.375946
35.69 433.979492
35.70 436.762115
35.71 438.009247
35.72 436.852234
35.73 434.787079
35.74 433.924622
35.75 423.887177
35.76 418.163544
35.77 424.271545
35.78 424.129425
35.79 421.282196
35.80 427.476654
35.81 430.463806
35.82 430.071259
35.83 426.245117
35.84 421.298523
35.85 425.619781
35.86 427.457275
35.87 421.819153
35.88 417.847321
35.89 415.608795
35.90 414.570038
35.91 415.300201
35.92 413.627472
35.93 409.288849
35.94 404.482819
35.95 407.687592
35.96 409.953064
35.97 410.878418
35.98 417.750763
35.99 426.452667
36.00 425.498169
36.01 422.517792
36.02 419.480164
36.03 412.152039
36.04 412.855408
36.05 418.789185
36.06 418.731873
36.07 415.444733
36.08 415.348572
36.09 412.630371
36.10 409.956848
36.11 411.155182
36.12 409.716827
36.13 409.355927
36.14 408.193573
36.15 412.003723
36.16 413.637207
36.17 408.411682
36.18 407.310211
36.19 409.808533
36.20 416.103394
36.21 412.172668
36.22 408.959534
36.23 407.44989
36.24 402.31131
36.25 404.640167
36.26 407.735382
36.27 404.239441
36.28 397.49765
36.29 396.926453
36.30 400.199097
36.31 400.149933
36.32 402.986938
36.33 407.593933
36.34 405.956848
36.35 400.046814
36.36 400.589874
36.37 402.593109
36.38 400.5914
36.39 400.187805
36.40 400.270386
36.41 403.848602
36.42 409.674713
36.43 409.455566
36.44 407.043854
36.45 405.238983
36.46 399.806732
36.47 396.486664
36.48 402.032288
36.49 411.763092
36.50 408.057068
36.51 403.523438
36.52 402.415894
36.53 402.745422
36.54 404.477539
36.55 405.703796
36.56 400.203217
36.57 394.392181
36.58 395.868286
36.59 391.543457
36.60 389.417572
36.61 390.388702
36.62 391.517914
36.63 392.902222
36.64 397.294342
36.65 397.791962
36.66 394.493134
36.67 398.733948
36.68 396.657196
36.69 390.529358
36.70 395.331879
36.71 396.211365
36.72 396.769745
36.73 393.077576
36.74 393.595184
36.75 396.285736
36.76 391.44455
36.77 389.189453
36.78 387.996368
36.79 387.214905
36.80 387.369141
36.81 389.831512
36.82 394.012177
36.83 393.505524
36.84 393.282104
36.85 392.843964
36.86 386.659454
36.87 385.011169
36.88 388.759857
36.89 390.784149
36.90 385.84726
36.91 384.864075
36.92 381.034393
36.93 380.727295
36.94 382.311707
36.95 383.032623
36.96 380.724365
36.97 383.671844
36.98 386.086334
36.99 384.890747
37.00 384.535889
37.01 391.134705
37.02 392.859222
37.03 388.916443
37.04 387.547882
37.05 390.593475
37.06 393.933685
37.07 388.29129
37.08 383.326813
37.09 379.014771
37.10 376.445648
37.11 380.245209
37.12 377.762909
37.13 378.845551
37.14 386.991455
37.15 387.005219
37.16 378.344757
37.17 374.926697
37.18 376.382355
37.19 378.226257
37.20 381.529266
37.21 384.996826
37.22 384.707672
37.23 378.531555
37.24 371.193268
37.25 373.689148
37.26 381.296265
37.27 382.741669
37.28 381.562164
37.29 381.47229
37.30 380.204895
37.31 377.818115
37.32 377.027649
37.33 372.812134
37.34 368.467926
37.35 370.92276
37.36 379.757996
37.37 386.451569
37.38 382.437256
37.39 377.85199
37.40 371.157501
37.41 369.825073
37.42 370.25882
37.43 372.285553
37.44 373.19162
37.45 373.660889
37.46 375.745239
37.47 377.726044
37.48 374.663727
37.49 370.88559
37.50 372.160004
37.51 375.024628
37.52 375.874939
37.53 375.178864
37.54 371.447296
37.55 365.928589
37.56 365.753601
37.57 367.449158
37.58 373.8396
37.59 374.489716
37.60 369.503082
37.61 370.198029
37.62 372.637482
37.63 370.780182
37.64 368.26416
37.65 367.416748
37.66 369.102722
37.67 371.957886
37.68 369.693726
37.69 372.005554
37.70 373.957581
37.71 368.04187
37.72 358.615967
37.73 358.075256
37.74 362.582153
37.75 369.252838
37.76 367.918274
37.77 363.781616
37.78 362.490692
37.79 362.672302
37.80 366.3526
37.81 368.564453
37.82 369.176025
37.83 364.313995
37.84 362.501373
37.85 367.21109
37.86 372.505646
37.87 369.274323
37.88 369.125092
37.89 365.481842
37.90 361.770172
37.91 366.459991
37.92 373.028442
37.93 377.008331
37.94 376.282623
37.95 369.856812
37.96 369.654602
37.97 369.646088
37.98 359.998535
37.99 353.871124
38.00 357.106323
38.01 356.738312
38.02 349.383057
38.03 351.344116
38.04 354.696869
38.05 356.141479
38.06 361.357422
38.07 368.361542
38.08 373.586029
38.09 375.169617
38.10 369.22818
38.11 363.174408
38.12 363.011475
38.13 361.403412
38.14 361.257324
38.15 357.433136
38.16 356.360657
38.17 360.85144
38.18 362.368439
38.19 363.120636
38.20 363.278259
38.21 361.057953
38.22 361.074432
38.23 365.744293
38.24 366.090179
38.25 358.236389
38.26 354.895294
38.27 355.840607
38.28 361.209717
38.29 362.761139
38.30 359.40976
38.31 356.03476
38.32 357.40686
38.33 360.489014
38.34 364.299286
38.35 368.133453
38.36 367.508789
38.37 363.646576
38.38 362.058197
38.39 359.891113
38.40 353.620361
38.41 353.733643
38.42 357.329559
38.43 358.154541
38.44 361.430969
38.45 363.798828
38.46 368.907227
38.47 365.768219
38.48 361.571686
38.49 365.122284
38.50 368.825073
38.51 371.832764
38.52 373.798676
38.53 371.389404
38.54 365.732483
38.55 362.185272
38.56 365.734436
38.57 368.934509
38.58 365.722717
38.59 366.958984
38.60 368.358093
38.61 361.164795
38.62 363.947083
38.63 369.950958
38.64 370.016449
38.65 366.097992
38.66 364.821503
38.67 364.919678
38.68 362.914276
38.69 363.992554
38.70 361.360779
38.71 357.619568
38.72 361.546295
38.73 363.550873
38.74 362.06189
38.75 362.474762
38.76 364.02066
38.77 366.805573
38.78 364.003632
38.79 361.05069
38.80 359.679413
38.81 355.991821
38.82 356.595856
38.83 359.170807
38.84 359.22641
38.85 361.548035
38.86 357.522705
38.87 350.576355
38.88 346.448883
38.89 351.152374
38.90 356.384186
38.91 364.500763
38.92 369.260315
38.93 366.350311
38.94 367.965637
38.95 367.016663
38.96 361.528656
38.97 350.695526
38.98 345.801575
38.99 350.449219
39.00 351.431915
39.01 355.71521
39.02 356.872559
39.03 358.316376
39.04 364.395111
39.05 365.000336
39.06 361.145691
39.07 361.340515
39.08 357.959534
39.09 357.273285
39.10 356.008759
39.11 355.647247
39.12 358.045532
39.13 354.353973
39.14 357.746185
39.15 358.898438
39.16 355.961761
39.17 351.939606
39.18 346.982788
39.19 349.191223
39.20 348.897919
39.21 350.931061
39.22 351.575012
39.23 347.742981
39.24 350.011017
39.25 351.607605
39.26 351.740448
39.27 355.952942
39.28 355.834259
39.29 351.641327
39.30 347.098267
39.31 343.607361
39.32 345.499146
39.33 350.079376
39.34 349.252258
39.35 348.932617
39.36 353.152008
39.37 354.128815
39.38 347.363464
39.39 351.60437
39.40 359.603577
39.41 354.968842
39.42 352.336456
39.43 356.421753
39.44 354.157257
39.45 353.227905
39.46 355.190369
39.47 355.401093
39.48 355.552612
39.49 351.562866
39.50 351.18158
39.51 355.595947
39.52 355.477234
39.53 353.847198
39.54 349.17749
39.55 345.226807
39.56 347.451904
39.57 354.820923
39.58 348.904144
39.59 339.36673
39.60 343.941284
39.61 347.116455
39.62 347.165192
39.63 351.16156
39.64 353.009705
39.65 349.988525
39.66 348.727234
39.67 346.173828
39.68 343.916138
39.69 349.299591
39.70 345.232635
39.71 344.955475
39.72 345.408722
39.73 342.618378
39.74 342.89212
39.75 345.34079
39.76 346.416107
39.77 343.789703
39.78 342.127289
39.79 342.125336
39.80 347.477112
39.81 346.958099
39.82 346.359039
39.83 349.472839
39.84 350.461945
39.85 348.986206
39.86 346.199829
39.87 341.804718
39.88 341.530151
39.89 345.708771
39.90 346.831757
39.91 347.495789
39.92 345.781158
39.93 343.214874
39.94 345.137177
39.95 347.528107
39.96 343.796448
39.97 338.672241
39.98 341.720245
39.99 341.49884
40.00 342.296021
40.01 346.419769
40.02 351.971741
40.03 350.461334
40.04 340.056061
40.05 338.490631
40.06 342.86142
40.07 344.100555
40.08 340.226105
40.09 342.095825
40.10 351.46463
40.11 353.44986
40.12 350.286438
40.13 350.193298
40.14 347.690765
40.15 344.25119
40.16 345.991577
40.17 347.167023
40.18 350.74646
40.19 354.459229
40.20 353.211639
40.21 352.127228
40.22 353.596893
40.23 352.205353
40.24 352.083893
40.25 347.67868
40.26 343.161804
40.27 350.486359
40.28 356.282227
40.29 355.088562
40.30 348.358765
40.31 349.732788
40.32 355.222504
40.33 355.083771
40.34 352.976196
40.35 354.312164
40.36 353.895996
40.37 347.872131
40.38 353.757965
40.39 361.581329
40.40 361.844299
40.41 363.770447
40.42 359.776459
40.43 357.471802
40.44 360.546021
40.45 359.447144
40.46 358.75238
40.47 359.960022
40.48 361.599945
40.49 362.516418
40.50 361.098938
40.51 359.630676
40.52 358.072632
40.53 361.193878
40.54 365.194
40.55 362.376678
40.56 360.642242
40.57 360.24173
40.58 356.419037
40.59 355.105927
40.60 357.023132
40.61 361.232208
40.62 363.351013
40.63 358.404449
40.64 350.051941
40.65 346.561462
40.66 348.377411
40.67 352.229553
40.68 351.113129
40.69 348.567627
40.70 348.548492
40.71 350.347565
40.72 354.674438
40.73 354.79538
40.74 354.797302
40.75 355.327545
40.76 355.910828
40.77 353.066071
40.78 350.171143
40.79 351.338623
40.80 354.559143
40.81 351.657471
40.82 349.68457
40.83 351.459015
40.84 353.387817
40.85 352.629395
40.86 350.700623
40.87 349.986359
40.88 349.241302
40.89 350.295227
40.90 351.195984
40.91 349.310638
40.92 343.247833
40.93 341.457031
40.94 343.617218
40.95 347.24353
40.96 352.615295
40.97 355.180145
40.98 353.227264
40.99 352.264069
41.00 349.918701
41.01 348.380157
41.02 348.660706
41.03 345.47226
41.04 342.391174
41.05 345.578583
41.06 346.715942
41.07 345.53653
41.08 344.844696
41.09 342.998352
41.10 338.412354
