!@!!GADDS PLOTSO FILE: Chi integration type
!@!!Title/SampleName: ML_MAPbX3
!@!!User: NREL
!@!!Site: NREL SERF C211; SN 2510
!@!!Frame: 081022_MLProject_000_015.gfrm
!@!!Wavelengths    1.54184   1.54056   1.54439
!@!!Frame angles: 2Theta: 28.000 Omega: 5.000 Phi: 0.000 Chi: 90.000
!@!!Integration range: 2Theta: 10.000 to 41.100  Gamma: -120.400 to -60.400
!@!!Integration method: bin normalized
!@!N
!@!SS
!@!M
!@!L 0.0 0.0 0.0 0.0
!@!XDegrees
!@!YCounts
10.00 206.754852
10.01 201.678848
10.02 199.634659
10.03 205.353424
10.04 209.773758
10.05 206.441666
10.06 207.887909
10.07 209.671875
10.08 208.034378
10.09 214.085388
10.10 215.797546
10.11 214.335175
10.12 207.66748
10.13 202.691315
10.14 209.478745
10.15 211.740784
10.16 201.870178
10.17 196.845917
10.18 198.612549
10.19 195.660675
10.20 202.141571
10.21 205.742996
10.22 201.981949
10.23 196.269379
10.24 204.902313
10.25 214.580612
10.26 210.630112
10.27 203.696609
10.28 203.684525
10.29 195.748932
10.30 188.439957
10.31 196.040756
10.32 200.709442
10.33 205.305618
10.34 200.968796
10.35 198.740448
10.36 203.882401
10.37 204.066971
10.38 198.724304
10.39 195.879166
10.40 196.844742
10.41 207.121429
10.42 212.04982
10.43 209.768631
10.44 210.514633
10.45 210.437241
10.46 213.87796
10.47 219.114624
10.48 217.961197
10.49 218.831161
10.50 225.721542
10.51 219.581573
10.52 207.780533
10.53 204.870361
10.54 208.586899
10.55 212.067841
10.56 214.917603
10.57 210.189392
10.58 210.022934
10.59 217.128616
10.60 212.134995
10.61 213.092651
10.62 219.390976
10.63 221.133392
10.64 221.300293
10.65 223.186951
10.66 229.015152
10.67 225.568405
10.68 219.968124
10.69 217.556198
10.70 217.140182
10.71 218.846817
10.72 222.009308
10.73 222.667236
10.74 222.312607
10.75 226.846664
10.76 232.714767
10.77 227.437592
10.78 221.451157
10.79 224.901535
10.80 231.626953
10.81 237.602112
10.82 229.697372
10.83 221.062103
10.84 220.77388
10.85 220.751831
10.86 219.20816
10.87 217.730667
10.88 216.867157
10.89 216.285202
10.90 217.568604
10.91 221.01059
10.92 226.527374
10.93 225.090851
10.94 224.103668
10.95 222.250916
10.96 219.614014
10.97 216.884811
10.98 215.16246
10.99 220.897842
11.00 225.704437
11.01 229.052612
11.02 224.192856
11.03 214.380035
11.04 217.255157
11.05 228.827072
11.06 227.835403
11.07 219.977188
11.08 219.709259
11.09 229.406174
11.10 236.368378
11.11 233.947601
11.12 232.718246
11.13 232.026733
11.14 228.837128
11.15 226.406631
11.16 222.939163
11.17 217.360107
11.18 215.038071
11.19 219.420517
11.20 229.669968
11.21 234.55983
11.22 232.633026
11.23 231.274567
11.24 227.283783
11.25 225.813324
11.26 223.064835
11.27 223.608841
11.28 225.105789
11.29 226.39888
11.30 226.882065
11.31 230.322128
11.32 234.09343
11.33 231.58902
11.34 224.476852
11.35 228.073288
11.36 234.674988
11.37 234.637054
11.38 236.916428
11.39 236.236496
11.40 232.78125
11.41 232.57872
11.42 241.128006
11.43 241.212173
11.44 234.180542
11.45 237.027008
11.46 243.523407
11.47 240.920044
11.48 238.031738
11.49 241.84552
11.50 243.970963
11.51 244.458481
11.52 246.006805
11.53 240.275406
11.54 239.957993
11.55 250.711121
11.56 243.693726
11.57 234.469589
11.58 244.294067
11.59 248.413116
11.60 253.915085
11.61 250.677643
11.62 237.707306
11.63 234.9608
11.64 235.451157
11.65 234.350769
11.66 234.033554
11.67 243.713058
11.68 251.643967
11.69 254.208237
11.70 250.556473
11.71 250.524811
11.72 252.260391
11.73 249.035355
11.74 251.649994
11.75 251.528671
11.76 248.797821
11.77 243.263733
11.78 244.429276
11.79 250.56369
11.80 244.793976
11.81 247.744553
11.82 254.711304
11.83 254.492966
11.84 257.196838
11.85 251.459137
11.86 253.783936
11.87 252.94017
11.88 244.415436
11.89 252.247726
11.90 257.879303
11.91 262.374664
11.92 261.922394
11.93 262.777222
11.94 264.178406
11.95 259.577545
11.96 259.148956
11.97 260.034668
11.98 262.130432
11.99 261.568756
12.00 257.855164
12.01 262.76178
12.02 266.196259
12.03 266.299286
12.04 275.970673
12.05 277.523651
12.06 281.105377
12.07 275.34494
12.08 268.899445
12.09 276.644653
12.10 279.612
12.11 286.64389
12.12 284.936127
12.13 281.456024
12.14 285.567322
12.15 287.930695
12.16 294.643677
12.17 301.62854
12.18 303.237091
12.19 303.912537
12.20 310.995697
12.21 309.456909
12.22 307.956726
12.23 309.981171
12.24 316.66922
12.25 324.905914
12.26 333.999695
12.27 337.184509
12.28 329.098541
12.29 328.644318
12.30 338.032959
12.31 348.087433
12.32 350.202789
12.33 356.345825
12.34 359.23465
12.35 350.306763
12.36 351.056274
12.37 365.273651
12.38 375.840271
12.39 378.283752
12.40 365.983551
12.41 370.251068
12.42 379.684021
12.43 383.590363
12.44 398.252197
12.45 408.39212
12.46 408.492645
12.47 403.040833
12.48 402.249023
12.49 410.453674
12.50 422.971069
12.51 422.575348
12.52 421.662933
12.53 422.725586
12.54 429.516846
12.55 433.132233
12.56 432.004303
12.57 433.989838
12.58 436.668427
12.59 437.674957
12.60 443.253357
12.61 444.941254
12.62 443.745483
12.63 443.207458
12.64 434.034027
12.65 424.637085
12.66 421.098297
12.67 425.497986
12.68 417.575378
12.69 411.52066
12.70 412.153778
12.71 407.732086
12.72 392.857178
12.73 377.976105
12.74 371.995392
12.75 366.842743
12.76 362.365326
12.77 354.705536
12.78 357.65329
12.79 354.14621
12.80 352.079376
12.81 344.739288
12.82 329.547058
12.83 322.200562
12.84 325.717255
12.85 322.60556
12.86 313.819061
12.87 307.769714
12.88 307.794617
12.89 303.383545
12.90 298.031799
12.91 300.449219
12.92 293.896851
12.93 288.836945
12.94 293.394653
12.95 295.994873
12.96 302.585663
12.97 305.97644
12.98 299.249268
12.99 292.961426
13.00 287.626129
13.01 286.772919
13.02 290.086487
13.03 290.637207
13.04 291.188416
13.05 292.981262
13.06 287.576691
13.07 283.936829
13.08 278.417145
13.09 270.316437
13.10 281.481079
13.11 286.360321
13.12 288.576721
13.13 295.62326
13.14 292.877319
13.15 291.364197
13.16 292.038727
13.17 291.561005
13.18 288.025085
13.19 284.628601
13.20 283.654327
13.21 280.251862
13.22 279.518585
13.23 281.669434
13.24 280.714844
13.25 282.886932
13.26 285.771545
13.27 283.98996
13.28 283.486053
13.29 285.034698
13.30 287.49234
13.31 289.396118
13.32 297.162903
13.33 299.059875
13.34 292.89856
13.35 292.050476
13.36 289.899109
13.37 292.663971
13.38 293.921631
13.39 293.673737
13.40 295.213165
13.41 294.47406
13.42 290.097046
13.43 292.452332
13.44 295.804596
13.45 296.614899
13.46 297.196411
13.47 301.439056
13.48 302.778046
13.49 297.015533
13.50 295.753204
13.51 292.686859
13.52 289.110229
13.53 295.55069
13.54 309.0578
13.55 312.490173
13.56 308.82959
13.57 303.949585
13.58 300.394531
13.59 298.489624
13.60 307.353271
13.61 318.061615
13.62 316.273224
13.63 310.62439
13.64 313.034698
13.65 321.268188
13.66 326.746246
13.67 330.747467
13.68 332.252686
13.69 337.867188
13.70 340.490723
13.71 342.286133
13.72 348.243713
13.73 354.90509
13.74 362.940155
13.75 376.021332
13.76 373.736115
13.77 369.218719
13.78 370.425385
13.79 371.792694
13.80 376.915375
13.81 378.543976
13.82 383.125977
13.83 397.502502
13.84 410.72702
13.85 409.62738
13.86 411.443695
13.87 412.27533
13.88 412.478699
13.89 423.057739
13.90 443.199921
13.91 452.474091
13.92 442.952728
13.93 445.901855
13.94 463.268768
13.95 465.809631
13.96 474.73941
13.97 484.55304
13.98 497.43811
13.99 515.617737
14.00 526.435852
14.01 531.613464
14.02 541.731079
14.03 556.355103
14.04 554.39917
14.05 550.710144
14.06 566.699036
14.07 583.467346
14.08 590.549622
14.09 601.783936
14.10 604.42395
14.11 610.938538
14.12 616.460938
14.13 622.129395
14.14 621.966797
14.15 628.880127
14.16 643.696777
14.17 650.575684
14.18 656.946899
14.19 658.76355
14.20 661.154663
14.21 664.910217
14.22 665.748535
14.23 660.643127
14.24 648.771179
14.25 648.225647
14.26 648.834229
14.27 632.437744
14.28 613.505371
14.29 605.054504
14.30 590.646362
14.31 589.047913
14.32 577.503479
14.33 561.603638
14.34 541.842102
14.35 537.604126
14.36 536.958923
14.37 523.981384
14.38 502.367279
14.39 478.155762
14.40 461.006409
14.41 447.136353
14.42 444.855316
14.43 439.422455
14.44 426.368073
14.45 419.861725
14.46 419.724762
14.47 413.643433
14.48 407.56842
14.49 403.641846
14.50 397.537872
14.51 380.565735
14.52 389.892273
14.53 387.708557
14.54 377.283234
14.55 379.30957
14.56 371.037628
14.57 366.749786
14.58 368.710876
14.59 365.522186
14.60 364.435028
14.61 366.696625
14.62 372.132111
14.63 370.656128
14.64 367.593781
14.65 361.721313
14.66 354.452606
14.67 357.89563
14.68 354.917908
14.69 340.582825
14.70 347.518982
14.71 358.709503
14.72 364.118958
14.73 362.769928
14.74 365.413666
14.75 371.936035
14.76 370.768616
14.77 368.318359
14.78 374.218445
14.79 380.904785
14.80 364.460022
14.81 354.855133
14.82 366.976471
14.83 379.639343
14.84 380.022247
14.85 378.226776
14.86 385.073303
14.87 388.433929
14.88 382.909882
14.89 380.35791
14.90 379.195679
14.91 379.626038
14.92 385.170166
14.93 396.054901
14.94 398.287109
14.95 406.899109
14.96 415.878723
14.97 413.06015
14.98 415.604431
14.99 418.103271
15.00 423.467102
15.01 426.495972
15.02 442.404572
15.03 455.011047
15.04 462.512604
15.05 460.003723
15.06 455.801941
15.07 459.647308
15.08 469.073029
15.09 471.564362
15.10 485.130768
15.11 491.069519
15.12 490.43222
15.13 498.438141
15.14 505.501526
15.15 517.782349
15.16 520.87262
15.17 525.392395
15.18 528.989502
15.19 528.407593
15.20 540.045776
15.21 550.897949
15.22 549.85376
15.23 550.490295
15.24 552.78064
15.25 557.23822
15.26 555.353577
15.27 554.211121
15.28 551.846924
15.29 546.967896
15.30 543.859863
15.31 549.294189
15.32 560.222717
15.33 552.054688
15.34 540.955933
15.35 546.368347
15.36 544.052368
15.37 531.69397
15.38 528.218506
15.39 530.490601
15.40 515.810974
15.41 508.813354
15.42 505.61438
15.43 491.538971
15.44 482.43692
15.45 476.913147
15.46 466.41983
15.47 461.191833
15.48 459.302399
15.49 447.490387
15.50 435.586548
15.51 425.591614
15.52 421.161011
15.53 413.8992
15.54 408.331116
15.55 404.338165
15.56 403.743408
15.57 396.607513
15.58 391.736237
15.59 391.899811
15.60 379.386139
15.61 362.782135
15.62 366.706482
15.63 372.232422
15.64 368.533997
15.65 361.479492
15.66 358.30423
15.67 355.182861
15.68 348.975433
15.69 352.8992
15.70 350.659027
15.71 346.12439
15.72 350.380707
15.73 350.693939
15.74 343.414032
15.75 338.653931
15.76 346.146484
15.77 349.751038
15.78 340.546295
15.79 331.500244
15.80 337.378906
15.81 344.898285
15.82 335.450775
15.83 324.619843
15.84 332.127808
15.85 339.728699
15.86 339.11731
15.87 338.667877
15.88 338.835052
15.89 339.705475
15.90 344.474457
15.91 352.590149
15.92 344.780334
15.93 338.526978
15.94 338.4039
15.95 334.547729
15.96 340.46344
15.97 344.724792
15.98 342.478424
15.99 345.582581
16.00 343.550629
16.01 335.056061
16.02 334.116302
16.03 333.928314
16.04 331.158569
16.05 335.933167
16.06 336.610931
16.07 332.155457
16.08 337.388367
16.09 334.406158
16.10 332.68454
16.11 334.947327
16.12 327.704773
16.13 326.166077
16.14 330.149719
16.15 346.023712
16.16 351.659882
16.17 345.939697
16.18 338.358643
16.19 330.567139
16.20 331.766846
16.21 334.686981
16.22 335.979034
16.23 342.239502
16.24 340.159149
16.25 336.944733
16.26 339.617767
16.27 340.313904
16.28 336.366028
16.29 338.502808
16.30 346.17868
16.31 346.27655
16.32 338.421051
16.33 340.033813
16.34 338.135254
16.35 332.224823
16.36 330.513153
16.37 335.112274
16.38 341.432709
16.39 347.207794
16.40 348.297638
16.41 342.103302
16.42 336.708038
16.43 340.826843
16.44 339.923187
16.45 345.589508
16.46 348.587067
16.47 344.237762
16.48 344.867126
16.49 350.626526
16.50 348.923767
16.51 344.660248
16.52 348.364349
16.53 352.951538
16.54 350.834259
16.55 341.655731
16.56 342.509796
16.57 345.002441
16.58 348.885529
16.59 354.037964
16.60 349.617554
16.61 348.868378
16.62 348.524597
16.63 342.187317
16.64 341.968079
16.65 346.205444
16.66 345.45459
16.67 341.794189
16.68 343.421173
16.69 343.764008
16.70 341.776489
16.71 346.024933
16.72 347.808685
16.73 346.573883
16.74 354.853058
16.75 357.898682
16.76 355.158508
16.77 349.944977
16.78 348.879517
16.79 352.799866
16.80 355.828278
16.81 359.10141
16.82 352.609772
16.83 348.283386
16.84 346.382568
16.85 351.034485
16.86 357.487488
16.87 357.302521
16.88 354.891388
16.89 353.035004
16.90 351.853638
16.91 357.272949
16.92 363.720245
16.93 359.277802
16.94 355.00058
16.95 351.645874
16.96 351.88327
16.97 356.23111
16.98 359.520844
16.99 361.068909
17.00 361.045654
17.01 358.925385
17.02 353.862122
17.03 350.269501
17.04 356.123901
17.05 361.514496
17.06 368.210297
17.07 363.39856
17.08 356.358521
17.09 357.281647
17.10 357.403198
17.11 356.527954
17.12 355.75238
17.13 355.519775
17.14 357.959564
17.15 361.854401
17.16 361.753723
17.17 365.230225
17.18 364.633331
17.19 363.384033
17.20 363.317444
17.21 358.177612
17.22 359.657654
17.23 365.573547
17.24 365.128235
17.25 364.510742
17.26 364.296814
17.27 365.254669
17.28 368.756927
17.29 362.79126
17.30 354.479431
17.31 360.184723
17.32 371.94693
17.33 370.23642
17.34 368.767181
17.35 369.066833
17.36 365.5961
17.37 367.922333
17.38 371.751831
17.39 375.058716
17.40 370.781616
17.41 369.019196
17.42 369.036621
17.43 370.376801
17.44 366.49585
17.45 360.832855
17.46 358.087708
17.47 369.39447
17.48 375.291718
17.49 371.006226
17.50 371.245331
17.51 365.594238
17.52 358.486816
17.53 366.751068
17.54 381.051849
17.55 379.603088
17.56 367.194
17.57 365.708038
17.58 370.495544
17.59 373.928467
17.60 377.507507
17.61 377.939209
17.62 378.405975
17.63 381.558746
17.64 386.060455
17.65 389.921051
17.66 395.267578
17.67 395.8909
17.68 389.522095
17.69 385.469421
17.70 385.806488
17.71 385.908234
17.72 380.516907
17.73 379.534607
17.74 384.432587
17.75 389.847046
17.76 391.845947
17.77 386.625
17.78 381.785736
17.79 374.459167
17.80 372.531525
17.81 373.920013
17.82 377.505798
17.83 378.807129
17.84 381.561523
17.85 384.604584
17.86 392.642853
17.87 386.708374
17.88 379.323242
17.89 381.350891
17.90 378.761566
17.91 378.727814
17.92 383.770111
17.93 381.718048
17.94 386.319702
17.95 389.588654
17.96 390.41571
17.97 393.449707
17.98 397.284058
17.99 397.384369
18.00 395.191895
18.01 397.99765
18.02 391.932007
18.03 380.313293
18.04 377.213837
18.05 378.744568
18.06 381.979706
18.07 385.128876
18.08 386.945251
18.09 394.368591
18.10 405.022797
18.11 412.45929
18.12 408.631134
18.13 402.39978
18.14 403.766724
18.15 397.289673
18.16 386.334167
18.17 377.97876
18.18 381.582642
18.19 387.321228
18.20 389.296814
18.21 394.797638
18.22 397.723267
18.23 396.394501
18.24 399.383881
18.25 403.401062
18.26 401.465363
18.27 409.199585
18.28 415.895355
18.29 411.058624
18.30 409.09317
18.31 411.669495
18.32 412.195465
18.33 415.012024
18.34 414.190704
18.35 409.838776
18.36 401.137146
18.37 398.032166
18.38 402.338715
18.39 405.102112
18.40 411.0354
18.41 409.855103
18.42 406.28891
18.43 403.77121
18.44 408.523041
18.45 420.400269
18.46 416.759277
18.47 406.113434
18.48 407.941772
18.49 412.266418
18.50 412.193268
18.51 418.32135
18.52 427.160217
18.53 427.497559
18.54 425.385284
18.55 419.703552
18.56 414.738953
18.57 407.448914
18.58 410.467163
18.59 409.427979
18.60 407.125946
18.61 412.47876
18.62 417.095367
18.63 417.648651
18.64 420.927734
18.65 422.575226
18.66 418.881226
18.67 417.162628
18.68 416.950714
18.69 417.65152
18.70 420.68454
18.71 425.958618
18.72 421.187408
18.73 410.807281
18.74 406.454224
18.75 409.19223
18.76 415.640411
18.77 419.696259
18.78 431.451508
18.79 440.869293
18.80 435.555542
18.81 431.391907
18.82 427.871185
18.83 433.496643
18.84 438.308838
18.85 439.613037
18.86 435.166534
18.87 426.926727
18.88 420.695892
18.89 422.083679
18.90 429.54657
18.91 431.294861
18.92 436.530518
18.93 439.889801
18.94 431.355164
18.95 423.898743
18.96 423.724854
18.97 428.839294
18.98 431.109589
18.99 429.399628
19.00 426.676361
19.01 423.12384
19.02 429.562866
19.03 430.043152
19.04 427.45993
19.05 430.225433
19.06 436.000885
19.07 441.968811
19.08 439.079254
19.09 434.91333
19.10 437.822266
19.11 441.058319
19.12 439.168457
19.13 436.503235
19.14 436.784332
19.15 433.89035
19.16 433.045776
19.17 443.218964
19.18 445.968994
19.19 437.162445
19.20 429.604156
19.21 435.68866
19.22 448.453613
19.23 449.38913
19.24 447.42746
19.25 448.591644
19.26 446.329468
19.27 449.579529
19.28 449.050018
19.29 441.506805
19.30 437.47641
19.31 430.574829
19.32 430.471527
19.33 440.54248
19.34 449.841064
19.35 453.874817
19.36 453.156403
19.37 452.262817
19.38 450.813782
19.39 459.
19.40 458.95462
19.41 463.827789
19.42 461.187317
19.43 456.54129
19.44 460.641876
19.45 457.310303
19.46 459.181244
19.47 463.132935
19.48 462.657288
19.49 463.006012
19.50 460.577271
19.51 460.372833
19.52 459.278625
19.53 462.177216
19.54 471.102356
19.55 474.222382
19.56 462.869232
19.57 455.138123
19.58 462.517578
19.59 466.440002
19.60 461.966736
19.61 461.208588
19.62 467.533997
19.63 471.465088
19.64 471.764496
19.65 466.581726
19.66 467.052399
19.67 468.951172
19.68 465.007507
19.69 467.191406
19.70 471.210938
19.71 470.49823
19.72 465.168518
19.73 463.776855
19.74 467.636688
19.75 477.034363
19.76 481.123413
19.77 483.7276
19.78 478.393921
19.79 475.365265
19.80 481.443634
19.81 484.610382
19.82 478.223663
19.83 475.782959
19.84 478.604004
19.85 476.642731
19.86 480.295563
19.87 478.989349
19.88 474.412354
19.89 477.429504
19.90 480.49942
19.91 477.27774
19.92 483.356689
19.93 491.290466
19.94 486.109375
19.95 486.881409
19.96 492.611847
19.97 487.571442
19.98 488.212402
19.99 494.310608
20.00 492.445984
20.01 495.820313
20.02 497.616302
20.03 499.664093
20.04 501.374786
20.05 497.656067
20.06 493.427307
20.07 492.089722
20.08 499.019623
20.09 502.894348
20.10 499.509521
20.11 499.426147
20.12 508.345795
20.13 514.452393
20.14 516.424255
20.15 511.317596
20.16 503.089752
20.17 494.664093
20.18 496.584595
20.19 499.240845
20.20 499.000397
20.21 498.224945
20.22 494.793915
20.23 499.068054
20.24 506.460266
20.25 508.948303
20.26 508.704041
20.27 501.486023
20.28 501.549133
20.29 511.840851
20.30 515.954163
20.31 511.174042
20.32 502.750519
20.33 500.848145
20.34 504.366913
20.35 508.898804
20.36 513.973206
20.37 517.178467
20.38 511.670319
20.39 509.089325
20.40 512.896423
20.41 521.577454
20.42 525.296448
20.43 515.923645
20.44 505.660675
20.45 503.870148
20.46 508.342102
20.47 512.686462
20.48 514.946838
20.49 514.814331
20.50 509.014069
20.51 511.686157
20.52 508.798553
20.53 509.487976
20.54 512.696045
20.55 514.862183
20.56 514.135803
20.57 517.452087
20.58 517.667603
20.59 512.714294
20.60 508.194031
20.61 504.482269
20.62 506.436096
20.63 510.768005
20.64 509.353973
20.65 504.621857
20.66 502.354401
20.67 505.559784
20.68 503.914581
20.69 511.085754
20.70 517.145081
20.71 513.6474
20.72 519.56897
20.73 525.820679
20.74 524.59314
20.75 523.146973
20.76 518.94519
20.77 522.66925
20.78 523.613342
20.79 518.5354
20.80 519.513916
20.81 525.178772
20.82 529.70575
20.83 534.102112
20.84 535.220154
20.85 538.301819
20.86 539.655334
20.87 534.290161
20.88 529.522156
20.89 526.386475
20.90 524.542725
20.91 524.874939
20.92 524.308716
20.93 521.77417
20.94 522.448608
20.95 530.40271
20.96 532.050354
20.97 528.762634
20.98 533.359253
20.99 542.974487
21.00 545.778381
21.01 540.638611
21.02 530.468689
21.03 532.510803
21.04 535.802612
21.05 537.442932
21.06 543.554565
21.07 542.536926
21.08 538.627014
21.09 539.41687
21.10 544.445496
21.11 545.128845
21.12 542.229187
21.13 547.696777
21.14 547.145874
21.15 546.065063
21.16 551.083496
21.17 551.6604
21.18 544.191956
21.19 542.938782
21.20 545.214233
21.21 542.118103
21.22 539.560486
21.23 544.690979
21.24 542.516052
21.25 536.592224
21.26 538.289551
21.27 535.650879
21.28 534.419922
21.29 539.296143
21.30 545.543762
21.31 553.065491
21.32 552.767456
21.33 554.820557
21.34 558.79187
21.35 559.509949
21.36 564.797363
21.37 569.813782
21.38 561.801086
21.39 554.605103
21.40 557.420044
21.41 553.410217
21.42 551.498291
21.43 558.95752
21.44 559.001953
21.45 551.0224
21.46 547.993835
21.47 557.768677
21.48 565.23938
21.49 564.274719
21.50 558.372559
21.51 555.927551
21.52 557.182922
21.53 562.590881
21.54 563.546997
21.55 558.689636
21.56 554.410889
21.57 553.003662
21.58 556.691223
21.59 556.767395
21.60 560.638428
21.61 565.005859
21.62 564.268616
21.63 565.834473
21.64 573.429565
21.65 582.779419
21.66 574.892944
21.67 571.948486
21.68 581.852844
21.69 576.697021
21.70 566.059082
21.71 567.179138
21.72 570.884644
21.73 579.742004
21.74 580.180481
21.75 579.802551
21.76 580.110229
21.77 573.966309
21.78 571.014221
21.79 573.655701
21.80 575.769775
21.81 575.686523
21.82 574.89447
21.83 573.328003
21.84 574.845703
21.85 582.700745
21.86 591.552429
21.87 592.245056
21.88 593.281189
21.89 594.632385
21.90 589.85614
21.91 586.805664
21.92 584.571289
21.93 583.409119
21.94 586.633545
21.95 582.601929
21.96 578.205994
21.97 574.836731
21.98 572.272949
21.99 574.39563
22.00 582.541809
22.01 586.846619
22.02 584.402954
22.03 582.775085
22.04 578.469849
22.05 576.998718
22.06 587.941895
22.07 591.113892
22.08 581.301025
22.09 577.453064
22.10 582.539001
22.11 584.467468
22.12 592.417603
22.13 594.039368
22.14 588.480713
22.15 583.617615
22.16 581.677246
22.17 584.898438
22.18 582.394043
22.19 581.967224
22.20 591.592407
22.21 591.647644
22.22 592.670349
22.23 598.644714
22.24 596.885681
22.25 592.986572
22.26 585.436584
22.27 579.677795
22.28 579.468689
22.29 587.877625
22.30 591.537537
22.31 596.134644
22.32 605.718323
22.33 602.33667
22.34 597.405029
22.35 590.733337
22.36 588.086487
22.37 592.8255
22.38 597.594177
22.39 607.221191
22.40 611.651794
22.41 607.402893
22.42 604.262512
22.43 603.11792
22.44 603.265015
22.45 606.39502
22.46 606.752441
22.47 605.495361
22.48 607.971985
22.49 603.909058
22.50 605.458618
22.51 610.100403
22.52 609.619934
22.53 607.430542
22.54 606.80542
22.55 608.436646
22.56 606.25293
22.57 595.311157
22.58 594.750305
22.59 602.82074
22.60 608.835815
22.61 603.727112
22.62 607.414368
22.63 605.074646
22.64 606.874023
22.65 611.414001
22.66 607.169739
22.67 603.576904
22.68 605.021179
22.69 596.893555
22.70 591.700073
22.71 602.915649
22.72 611.886353
22.73 609.755737
22.74 606.351685
22.75 606.606262
22.76 605.689087
22.77 607.243164
22.78 608.357117
22.79 610.304016
22.80 619.773926
22.81 630.943298
22.82 629.414551
22.83 622.455933
22.84 629.201843
22.85 629.706665
22.86 620.378479
22.87 612.590088
22.88 620.616638
22.89 628.767944
22.90 630.455627
22.91 628.807556
22.92 618.443787
22.93 618.801819
22.94 622.461487
22.95 626.915283
22.96 632.665955
22.97 632.252014
22.98 620.251404
22.99 610.308716
23.00 609.753662
23.01 612.900574
23.02 624.861572
23.03 628.100281
23.04 617.512573
23.05 616.581848
23.06 623.258118
23.07 615.603943
23.08 610.762085
23.09 611.688904
23.10 610.651978
23.11 612.204468
23.12 619.775635
23.13 622.503113
23.14 623.192566
23.15 622.152283
23.16 617.987915
23.17 617.939331
23.18 626.254944
23.19 630.630371
23.20 622.660339
23.21 622.146851
23.22 623.46582
23.23 631.687927
23.24 628.848206
23.25 626.005737
23.26 626.472473
23.27 626.899353
23.28 627.001831
23.29 620.3078
23.30 612.567322
23.31 614.568787
23.32 615.640991
23.33 613.629639
23.34 622.924133
23.35 623.363892
23.36 616.952148
23.37 617.921387
23.38 608.739014
23.39 609.069336
23.40 615.659546
23.41 619.27948
23.42 621.558594
23.43 623.198608
23.44 623.069824
23.45 626.295166
23.46 629.382568
23.47 627.558472
23.48 626.549377
23.49 625.462219
23.50 626.847595
23.51 621.288208
23.52 615.69104
23.53 620.149658
23.54 625.548462
23.55 627.784607
23.56 619.861938
23.57 619.407288
23.58 626.843689
23.59 633.357422
23.60 630.521362
23.61 623.547302
23.62 626.604675
23.63 630.014648
23.64 629.675232
23.65 629.677002
23.66 631.054626
23.67 631.134888
23.68 627.32312
23.69 623.266418
23.70 621.558533
23.71 617.243591
23.72 612.300842
23.73 613.493225
23.74 621.82959
23.75 629.061646
23.76 628.412964
23.77 631.424622
23.78 637.771118
23.79 636.017944
23.80 631.372253
23.81 627.871704
23.82 622.03772
23.83 621.493286
23.84 624.370483
23.85 625.50824
23.86 626.721985
23.87 632.997009
23.88 650.307251
23.89 657.365601
23.90 648.00592
23.91 636.059814
23.92 625.491028
23.93 628.163757
23.94 630.396362
23.95 639.599121
23.96 651.08606
23.97 649.012573
23.98 638.249756
23.99 633.057861
24.00 635.028381
24.01 637.865601
24.02 636.958374
24.03 639.626953
24.04 641.198242
24.05 633.612183
24.06 636.251953
24.07 639.534241
24.08 638.233704
24.09 634.895569
24.10 638.293823
24.11 636.044617
24.12 631.731201
24.13 629.54303
24.14 629.588379
24.15 634.110901
24.16 641.287292
24.17 647.704651
24.18 648.7724
24.19 639.835876
24.20 638.08551
24.21 637.882874
24.22 632.878418
24.23 630.931763
24.24 632.387268
24.25 640.906738
24.26 646.353638
24.27 649.702637
24.28 648.50824
24.29 643.589722
24.30 639.628906
24.31 638.414673
24.32 648.940247
24.33 656.108521
24.34 649.16803
24.35 649.956055
24.36 649.334473
24.37 643.720825
24.38 644.043762
24.39 638.697632
24.40 632.102966
24.41 636.223511
24.42 640.722168
24.43 641.425537
24.44 647.841736
24.45 651.673767
24.46 657.613403
24.47 661.750732
24.48 663.221436
24.49 657.303345
24.50 648.58844
24.51 643.169373
24.52 640.641907
24.53 634.613586
24.54 638.36084
24.55 649.410095
24.56 652.004639
24.57 645.667053
24.58 648.101807
24.59 649.633362
24.60 646.787292
24.61 655.759888
24.62 655.232422
24.63 645.765137
24.64 641.817688
24.65 629.230896
24.66 624.369141
24.67 624.940247
24.68 626.333679
24.69 633.465088
24.70 646.218384
24.71 653.386658
24.72 647.046082
24.73 644.527832
24.74 649.095337
24.75 657.469604
24.76 652.676331
24.77 651.146423
24.78 653.459167
24.79 650.009399
24.80 639.743591
24.81 638.377502
24.82 639.815857
24.83 644.795837
24.84 651.472412
24.85 650.717224
24.86 650.481079
24.87 651.500854
24.88 650.493347
24.89 646.846375
24.90 645.678284
24.91 647.348267
24.92 648.367371
24.93 649.698364
24.94 653.8927
24.95 658.33551
24.96 656.12146
24.97 656.870667
24.98 655.495972
24.99 653.219299
25.00 651.891907
25.01 649.778503
25.02 642.12207
25.03 641.503723
25.04 641.628235
25.05 647.976929
25.06 654.627319
25.07 652.153503
25.08 653.909302
25.09 660.603638
25.10 663.318359
25.11 667.819519
25.12 670.341492
25.13 665.291931
25.14 657.701294
25.15 657.515747
25.16 660.706787
25.17 658.064941
25.18 651.206848
25.19 649.744995
25.20 647.220459
25.21 641.46344
25.22 639.500122
25.23 643.484924
25.24 641.146057
25.25 645.229858
25.26 647.909912
25.27 647.618042
25.28 646.476685
25.29 644.22229
25.30 644.088867
25.31 647.338684
25.32 654.828979
25.33 655.72345
25.34 646.79425
25.35 636.47937
25.36 639.480835
25.37 645.652344
25.38 648.795349
25.39 654.283325
25.40 650.943665
25.41 654.177063
25.42 659.982483
25.43 657.270081
25.44 652.333374
25.45 655.137817
25.46 648.312805
25.47 640.668823
25.48 643.516479
25.49 651.031738
25.50 646.776611
25.51 645.147522
25.52 648.74408
25.53 655.756226
25.54 661.692383
25.55 660.233887
25.56 651.288208
25.57 644.192566
25.58 650.61145
25.59 655.035645
25.60 648.969116
25.61 652.427856
25.62 652.013977
25.63 652.669434
25.64 652.334839
25.65 646.301941
25.66 646.044128
25.67 651.208923
25.68 645.524353
25.69 642.5578
25.70 646.481628
25.71 652.018799
25.72 652.629028
25.73 653.479736
25.74 658.934265
25.75 658.501038
25.76 655.521912
25.77 660.742981
25.78 664.941589
25.79 659.980591
25.80 651.862122
25.81 643.988892
25.82 632.853638
25.83 627.324524
25.84 633.819763
25.85 646.271973
25.86 653.082825
25.87 644.472412
25.88 646.060669
25.89 647.612061
25.90 651.173828
25.91 654.95575
25.92 657.825134
25.93 662.612854
25.94 665.086853
25.95 659.739929
25.96 652.331909
25.97 647.783997
25.98 645.900208
25.99 639.985779
26.00 639.956543
26.01 649.706909
26.02 651.485657
26.03 650.310791
26.04 652.299927
26.05 645.907593
26.06 638.220459
26.07 639.879639
26.08 643.973633
26.09 648.155579
26.10 647.251648
26.11 645.21106
26.12 635.092712
26.13 625.752991
26.14 634.379639
26.15 643.470032
26.16 647.226013
26.17 645.163635
26.18 645.123352
26.19 639.500732
26.20 641.058716
26.21 650.409363
26.22 658.955078
26.23 655.533936
26.24 657.20813
26.25 652.178833
26.26 648.946716
26.27 648.064697
26.28 649.28241
26.29 650.348145
26.30 654.267761
26.31 655.926453
26.32 648.668518
26.33 641.134155
26.34 643.942444
26.35 649.121765
26.36 651.657654
26.37 649.701355
26.38 644.860962
26.39 641.359802
26.40 644.910583
26.41 646.728394
26.42 644.740479
26.43 637.506653
26.44 631.135437
26.45 638.616089
26.46 638.177612
26.47 642.164612
26.48 651.108459
26.49 644.168945
26.50 642.973755
26.51 647.217773
26.52 644.932312
26.53 638.938416
26.54 645.588013
26.55 647.573792
26.56 644.063354
26.57 637.88739
26.58 626.376282
26.59 622.502808
26.60 624.081238
26.61 626.31073
26.62 625.925598
26.63 624.938293
26.64 619.403381
26.65 629.964478
26.66 639.452515
26.67 638.154663
26.68 637.666748
26.69 639.132324
26.70 635.56604
26.71 638.245361
26.72 637.886475
26.73 631.778381
26.74 627.993591
26.75 635.695984
26.76 636.933899
26.77 626.739258
26.78 615.923157
26.79 623.467346
26.80 636.480042
26.81 638.817383
26.82 635.059631
26.83 638.773315
26.84 637.741516
26.85 638.300903
26.86 647.447144
26.87 649.247009
26.88 645.718811
26.89 638.295227
26.90 627.876709
26.91 628.746399
26.92 635.51355
26.93 634.075134
26.94 635.795959
26.95 639.480713
26.96 641.079773
26.97 652.665588
26.98 649.877563
26.99 636.309387
27.00 631.64502
27.01 624.092957
27.02 623.212219
27.03 628.244507
27.04 626.460266
27.05 625.978699
27.06 623.304443
27.07 622.521362
27.08 628.747742
27.09 636.81665
27.10 637.632813
27.11 634.838196
27.12 634.729736
27.13 626.516479
27.14 625.134399
27.15 632.638855
27.16 632.072449
27.17 628.324829
27.18 631.992554
27.19 628.888611
27.20 624.569336
27.21 626.514038
27.22 624.052246
27.23 616.400513
27.24 617.640686
27.25 623.171692
27.26 623.88446
27.27 624.834229
27.28 632.21991
27.29 630.677002
27.30 635.173706
27.31 642.398865
27.32 640.384583
27.33 627.68457
27.34 621.862244
27.35 626.146057
27.36 624.098572
27.37 617.440308
27.38 619.030518
27.39 627.865845
27.40 629.362244
27.41 628.988831
27.42 630.318726
27.43 627.995422
27.44 623.755371
27.45 624.920715
27.46 631.209717
27.47 632.24469
27.48 628.796326
27.49 624.485229
27.50 624.116882
27.51 624.675659
27.52 629.234558
27.53 636.195007
27.54 632.569519
27.55 622.066589
27.56 620.63623
27.57 618.700623
27.58 618.142395
27.59 621.481873
27.60 629.000732
27.61 635.96759
27.62 639.524597
27.63 634.522766
27.64 629.197144
27.65 630.189514
27.66 642.80957
27.67 643.316467
27.68 646.314209
27.69 647.470764
27.70 645.057983
27.71 639.474182
27.72 632.244507
27.73 634.173889
27.74 633.491882
27.75 633.155945
27.76 632.887634
27.77 628.868835
27.78 621.407104
27.79 634.405945
27.80 645.7276
27.81 643.069519
27.82 637.980591
27.83 642.110779
27.84 641.229675
27.85 637.381226
27.86 637.911743
27.87 632.834412
27.88 623.991211
27.89 634.42041
27.90 644.388611
27.91 647.142212
27.92 646.704834
27.93 637.698181
27.94 635.06134
27.95 633.416992
27.96 633.080994
27.97 636.834229
27.98 638.686646
27.99 639.449158
28.00 646.087463
28.01 650.805969
28.02 657.210449
28.03 647.631531
28.04 640.268982
28.05 641.080017
28.06 641.784973
28.07 638.666687
28.08 633.644409
28.09 632.823853
28.10 636.898499
28.11 637.983276
28.12 639.37854
28.13 639.184631
28.14 640.245056
28.15 650.585693
28.16 653.929565
28.17 655.747498
28.18 655.669067
28.19 651.804138
28.20 649.034973
28.21 649.498535
28.22 652.600403
28.23 657.221375
28.24 656.329651
28.25 662.184021
28.26 660.860352
28.27 659.315369
28.28 662.708313
28.29 664.782166
28.30 665.573486
28.31 671.450867
28.32 672.481567
28.33 675.324158
28.34 680.94397
28.35 685.703674
28.36 687.437561
28.37 687.134094
28.38 689.258606
28.39 699.421021
28.40 703.015747
28.41 698.115662
28.42 711.015442
28.43 728.069214
28.44 731.211731
28.45 738.332947
28.46 741.748901
28.47 752.650757
28.48 759.262512
28.49 763.84082
28.50 766.152588
28.51 777.90918
28.52 783.627014
28.53 785.421936
28.54 805.366577
28.55 820.419373
28.56 818.034058
28.57 817.460754
28.58 819.588196
28.59 829.519958
28.60 842.7099
28.61 851.983459
28.62 863.003479
28.63 860.63855
28.64 857.150513
28.65 858.70282
28.66 841.221619
28.67 827.37854
28.68 829.307251
28.69 828.93634
28.70 838.239502
28.71 843.540466
28.72 842.873962
28.73 840.159241
28.74 834.192078
28.75 824.201538
28.76 803.620544
28.77 795.413208
28.78 790.58252
28.79 774.165771
28.80 762.504028
28.81 751.697021
28.82 746.781189
28.83 739.885986
28.84 730.500305
28.85 729.64679
28.86 724.807739
28.87 712.182068
28.88 711.3172
28.89 701.924133
28.90 690.592285
28.91 691.238647
28.92 692.865662
28.93 685.278748
28.94 681.105591
28.95 681.83252
28.96 679.03125
28.97 670.264526
28.98 669.712097
28.99 672.868042
29.00 664.135986
29.01 659.229126
29.02 660.38501
29.03 654.095886
29.04 648.249573
29.05 643.198914
29.06 641.648438
29.07 640.437256
29.08 634.758667
29.09 636.155029
29.10 642.468872
29.11 645.046814
29.12 641.541748
29.13 630.344604
29.14 625.093811
29.15 625.21051
29.16 630.154663
29.17 639.093933
29.18 636.608887
29.19 632.49469
29.20 633.502808
29.21 629.11792
29.22 625.275696
29.23 626.749878
29.24 622.977966
29.25 620.171692
29.26 622.566284
29.27 624.728577
29.28 619.80304
29.29 621.224487
29.30 627.849243
29.31 632.210815
29.32 629.125732
29.33 627.397278
29.34 628.036804
29.35 628.898804
29.36 633.482727
29.37 639.181824
29.38 636.744507
29.39 633.40918
29.40 627.299744
29.41 622.880371
29.42 621.883728
29.43 624.977966
29.44 622.533752
29.45 620.527649
29.46 623.628662
29.47 618.411194
29.48 612.600586
29.49 618.252014
29.50 616.826843
29.51 613.114197
29.52 610.638245
29.53 606.954102
29.54 603.63855
29.55 605.293945
29.56 604.298828
29.57 609.830505
29.58 611.290039
29.59 610.804504
29.60 608.687378
29.61 604.530273
29.62 607.111633
29.63 610.938721
29.64 610.573242
29.65 611.636047
29.66 615.5
29.67 620.270386
29.68 619.261902
29.69 609.419678
29.70 600.261353
29.71 595.752991
29.72 601.089111
29.73 611.406921
29.74 611.615906
29.75 612.226746
29.76 618.322815
29.77 619.997375
29.78 624.143311
29.79 623.363953
29.80 615.757324
29.81 611.089417
29.82 595.227112
29.83 588.182007
29.84 598.140503
29.85 606.369324
29.86 610.0672
29.87 607.616943
29.88 608.708984
29.89 614.214172
29.90 613.591858
29.91 606.993286
29.92 601.90271
29.93 599.654419
29.94 600.090027
29.95 599.734436
29.96 603.802917
29.97 605.682068
29.98 600.413574
29.99 594.351685
30.00 593.694824
30.01 597.723816
30.02 599.040649
30.03 596.660278
30.04 597.967224
30.05 603.704834
30.06 605.494202
30.07 609.494873
30.08 610.199707
30.09 607.701233
30.10 610.366272
30.11 609.332642
30.12 600.946716
30.13 597.866272
30.14 597.525391
30.15 592.126587
30.16 591.571777
30.17 600.488464
30.18 604.754822
30.19 601.484497
30.20 598.589844
30.21 601.562317
30.22 606.849548
30.23 608.895813
30.24 607.927734
30.25 604.220032
30.26 595.777161
30.27 598.405701
30.28 603.719788
30.29 606.342102
30.30 599.671936
30.31 592.300293
30.32 589.166199
30.33 585.245117
30.34 591.604736
30.35 600.326172
30.36 600.682068
30.37 600.891235
30.38 600.396301
30.39 598.601013
30.40 601.513611
30.41 606.275635
30.42 601.198608
30.43 597.371643
30.44 598.183105
30.45 597.852173
30.46 599.304077
30.47 604.330383
30.48 605.453003
30.49 605.544861
30.50 605.5177
30.51 601.457642
30.52 603.836243
30.53 612.602295
30.54 617.751526
30.55 610.963989
30.56 605.898254
30.57 605.460999
30.58 606.729004
30.59 608.810425
30.60 616.362915
30.61 624.705994
30.62 629.159973
30.63 630.326904
30.64 627.767395
30.65 619.394836
30.66 614.6474
30.67 615.104553
30.68 620.332642
30.69 620.86792
30.70 625.353455
30.71 631.710449
30.72 630.329468
30.73 634.07428
30.74 638.769348
30.75 636.121033
30.76 641.954102
30.77 648.645813
30.78 644.757629
30.79 639.871155
30.80 642.247803
30.81 645.195679
30.82 642.333679
30.83 637.443665
30.84 640.358704
30.85 651.890564
30.86 656.644714
30.87 658.590149
30.88 650.679016
30.89 650.450745
30.90 654.621399
30.91 652.298767
30.92 651.485229
30.93 654.906067
30.94 662.596985
30.95 661.151489
30.96 653.153809
30.97 656.184814
30.98 656.899048
30.99 657.154114
31.00 649.846008
31.01 643.733887
31.02 646.82959
31.03 640.346313
31.04 638.794128
31.05 635.583252
31.06 639.649841
31.07 640.610046
31.08 635.910339
31.09 638.39093
31.10 629.854187
31.11 619.764954
31.12 618.958435
31.13 616.276978
31.14 613.671631
31.15 617.464722
31.16 619.795776
31.17 615.034851
31.18 612.458069
31.19 608.820801
31.20 605.489136
31.21 602.012329
31.22 593.02832
31.23 587.502869
31.24 587.791443
31.25 590.282104
31.26 595.4245
31.27 594.702576
31.28 593.188843
31.29 598.674561
31.30 604.977112
31.31 601.172302
31.32 593.455322
31.33 593.866028
31.34 593.176453
31.35 591.582581
31.36 594.562744
31.37 589.86676
31.38 581.898438
31.39 580.868713
31.40 577.549011
31.41 580.452576
31.42 584.374756
31.43 581.892639
31.44 585.762817
31.45 587.800781
31.46 584.005371
31.47 585.604126
31.48 593.792542
31.49 596.280945
31.50 597.728516
31.51 597.827087
31.52 586.66156
31.53 574.814453
31.54 573.30835
31.55 575.947144
31.56 581.944458
31.57 587.660461
31.58 585.354614
31.59 584.476379
31.60 589.807922
31.61 585.506226
31.62 584.04541
31.63 587.38855
31.64 588.917053
31.65 583.159363
31.66 573.162231
31.67 575.056458
31.68 581.539673
31.69 590.173584
31.70 587.540161
31.71 581.910767
31.72 581.858337
31.73 582.006714
31.74 589.651855
31.75 589.60498
31.76 587.658936
31.77 590.35553
31.78 586.389832
31.79 587.843872
31.80 590.549011
31.81 591.758545
31.82 595.333496
31.83 598.824463
31.84 601.048096
31.85 604.602844
31.86 605.614014
31.87 603.824768
31.88 599.333557
31.89 598.662109
31.90 597.3703
31.91 596.779846
31.92 598.702759
31.93 600.914185
31.94 603.167725
31.95 601.768494
31.96 605.680481
31.97 613.230347
31.98 618.573059
31.99 616.886597
32.00 624.371643
32.01 628.12616
32.02 623.798279
32.03 626.856201
32.04 625.879639
32.05 619.364868
32.06 617.385803
32.07 625.708191
32.08 628.831177
32.09 622.498535
32.10 624.93811
32.11 627.987427
32.12 625.193604
32.13 619.958862
32.14 621.121765
32.15 622.333679
32.16 615.886841
32.17 615.259827
32.18 619.127686
32.19 621.648438
32.20 621.017761
32.21 618.092407
32.22 617.611938
32.23 617.052673
32.24 608.608948
32.25 606.670166
32.26 600.147766
32.27 598.482056
32.28 605.241028
32.29 601.254578
32.30 593.019897
32.31 591.829468
32.32 592.417053
32.33 592.571228
32.34 588.904541
32.35 586.109924
32.36 582.246704
32.37 585.502502
32.38 585.616638
32.39 585.25116
32.40 582.988281
32.41 583.949585
32.42 583.956726
32.43 580.250366
32.44 580.893738
32.45 582.559753
32.46 579.996277
32.47 576.364075
32.48 567.800842
32.49 570.895752
32.50 578.475098
32.51 570.4151
32.52 562.121582
32.53 558.618225
32.54 554.313904
32.55 550.415771
32.56 551.461914
32.57 549.6875
32.58 546.786682
32.59 546.390259
32.60 547.764954
32.61 554.565674
32.62 555.968201
32.63 552.564453
32.64 553.5625
32.65 553.04895
32.66 544.687744
32.67 532.033997
32.68 530.57251
32.69 537.32666
32.70 539.177917
32.71 546.0849
32.72 554.446045
32.73 555.459839
32.74 554.988892
32.75 548.245178
32.76 539.204956
32.77 540.264038
32.78 536.433594
32.79 527.953857
32.80 527.534302
32.81 530.826782
32.82 533.111023
32.83 535.51123
32.84 532.440491
32.85 531.495789
32.86 535.186096
32.87 531.728333
32.88 530.804504
32.89 539.599792
32.90 539.486755
32.91 535.925537
32.92 536.930237
32.93 533.495117
32.94 536.133484
32.95 537.281921
32.96 529.969849
32.97 527.436768
32.98 527.229309
32.99 523.748901
33.00 523.137939
33.01 523.923279
33.02 520.946106
33.03 515.63916
33.04 518.406921
33.05 526.947205
33.06 527.463928
33.07 525.4328
33.08 516.835754
33.09 508.573944
33.10 507.513214
33.11 508.078461
33.12 510.299774
33.13 511.99884
33.14 515.141968
33.15 521.438477
33.16 516.670532
33.17 506.237579
33.18 504.574402
33.19 510.630585
33.20 508.523926
33.21 508.883331
33.22 515.688293
33.23 520.119446
33.24 520.88092
33.25 521.004211
33.26 514.115356
33.27 513.112671
33.28 518.519104
33.29 520.249878
33.30 521.961914
33.31 513.983276
33.32 512.683655
33.33 512.128906
33.34 506.171478
33.35 507.024048
33.36 507.151611
33.37 504.457458
33.38 503.850952
33.39 508.978699
33.40 514.115479
33.41 520.089783
33.42 516.886292
33.43 512.608276
33.44 512.582153
33.45 508.573669
33.46 505.68045
33.47 509.787262
33.48 510.880585
33.49 513.90509
33.50 513.795471
33.51 505.555725
33.52 505.976746
33.53 503.504669
33.54 501.638702
33.55 504.409393
33.56 504.745972
33.57 502.389099
33.58 503.433533
33.59 506.83844
33.60 507.22934
33.61 505.393555
33.62 501.566071
33.63 501.750061
33.64 508.316223
33.65 510.093597
33.66 507.281006
33.67 503.598206
33.68 499.379761
33.69 504.784546
33.70 503.932404
33.71 505.346741
33.72 509.386383
33.73 504.509552
33.74 503.151581
33.75 503.996155
33.76 504.445343
33.77 505.100891
33.78 503.038605
33.79 499.870697
33.80 501.946686
33.81 500.501831
33.82 498.634338
33.83 502.386993
33.84 503.031769
33.85 504.61615
33.86 502.526215
33.87 499.135529
33.88 502.196533
33.89 500.488953
33.90 495.9664
33.91 494.981171
33.92 494.913666
33.93 495.63028
33.94 493.319519
33.95 486.496796
33.96 482.740295
33.97 482.488007
33.98 482.412933
33.99 480.858185
34.00 480.887451
34.01 482.258392
34.02 483.619263
34.03 488.343475
34.04 493.602417
34.05 491.081421
34.06 485.35965
34.07 481.861267
34.08 487.771332
34.09 486.767303
34.10 484.502502
34.11 485.111145
34.12 479.036865
34.13 480.052155
34.14 484.542328
34.15 482.693329
34.16 480.375519
34.17 483.452789
34.18 489.508148
34.19 489.619934
34.20 487.178101
34.21 483.854095
34.22 478.394775
34.23 476.953552
34.24 481.62149
34.25 483.341003
34.26 491.180023
34.27 495.631378
34.28 487.312958
34.29 484.45813
34.30 486.723297
34.31 488.464142
34.32 491.863708
34.33 494.192047
34.34 496.13855
34.35 498.861908
34.36 500.701538
34.37 493.654175
34.38 493.247864
34.39 492.63797
34.40 484.546143
34.41 483.304352
34.42 491.43988
34.43 490.586761
34.44 487.295135
34.45 482.33194
34.46 484.45871
34.47 486.625183
34.48 489.277161
34.49 492.090759
34.50 492.282501
34.51 494.947723
34.52 498.490814
34.53 493.893066
34.54 486.765961
34.55 486.967285
34.56 489.012909
34.57 490.200134
34.58 493.188507
34.59 494.119385
34.60 492.981598
34.61 487.997498
34.62 490.032898
34.63 490.575348
34.64 492.69989
34.65 493.344757
34.66 494.154724
34.67 488.535339
34.68 489.742584
34.69 496.770325
34.70 491.472321
34.71 488.856689
34.72 492.287628
34.73 496.151398
34.74 496.361664
34.75 488.924652
34.76 481.640472
34.77 479.143829
34.78 480.754395
34.79 486.519318
34.80 492.270844
34.81 493.282257
34.82 486.991364
34.83 484.424896
34.84 483.805084
34.85 481.766785
34.86 480.878601
34.87 477.502136
34.88 472.673187
34.89 470.500427
34.90 469.792419
34.91 474.635986
34.92 478.496643
34.93 476.529816
34.94 480.768127
34.95 478.281403
34.96 471.509277
34.97 471.072632
34.98 466.469055
34.99 471.933655
35.00 473.330963
35.01 462.801392
35.02 463.396271
35.03 468.99704
35.04 470.443542
35.05 461.90094
35.06 459.938416
35.07 466.502808
35.08 473.214325
35.09 476.158844
35.10 470.953491
35.11 468.137604
35.12 465.754669
35.13 462.524658
35.14 455.509125
35.15 453.83609
35.16 461.652405
35.17 463.656555
35.18 461.231049
35.19 457.132507
35.20 459.07016
35.21 458.062012
35.22 454.82489
35.23 462.740082
35.24 466.88562
35.25 467.290833
35.26 463.969421
35.27 457.339691
35.28 453.303802
35.29 456.532623
35.30 458.626068
35.31 455.159637
35.32 451.386139
35.33 446.726593
35.34 440.780487
35.35 436.637329
35.36 434.839996
35.37 439.41861
35.38 444.261566
35.39 447.369965
35.40 451.971924
35.41 453.932617
35.42 452.967224
35.43 450.065948
35.44 450.328796
35.45 448.809692
35.46 437.366821
35.47 434.805725
35.48 440.502472
35.49 443.637207
35.50 443.06366
35.51 440.629272
35.52 442.666748
35.53 447.015839
35.54 441.857025
35.55 435.331512
35.56 435.463654
35.57 437.647186
35.58 438.143921
35.59 436.095978
35.60 441.528015
35.61 446.370148
35.62 441.391602
35.63 438.556671
35.64 433.48761
35.65 431.564026
35.66 437.320007
35.67 438.363647
35.68 432.871307
35.69 430.44931
35.70 429.301208
35.71 428.319824
35.72 428.905853
35.73 435.757813
35.74 439.409119
35.75 436.732758
35.76 439.335571
35.77 437.808075
35.78 425.648376
35.79 419.151672
35.80 422.574188
35.81 426.600372
35.82 427.115234
35.83 423.230713
35.84 419.82666
35.85 422.42807
35.86 430.43042
35.87 428.126984
35.88 422.841431
35.89 428.406952
35.90 433.667358
35.91 428.953796
35.92 422.063568
35.93 419.343842
35.94 420.277924
35.95 419.962952
35.96 418.267548
35.97 421.387909
35.98 423.154205
35.99 424.607544
36.00 421.01535
36.01 417.071259
36.02 419.876434
36.03 418.66217
36.04 409.398956
36.05 406.552643
36.06 416.025238
36.07 422.710236
36.08 422.374359
36.09 420.037964
36.10 418.427734
36.11 416.601044
36.12 413.120392
36.13 410.016815
36.14 410.689941
36.15 407.50824
36.16 407.120789
36.17 417.218079
36.18 415.448059
36.19 409.669891
36.20 413.292755
36.21 410.906006
36.22 407.466278
36.23 404.880493
36.24 403.272644
36.25 403.769226
36.26 401.088654
36.27 399.223053
36.28 398.657379
36.29 404.309387
36.30 404.858368
36.31 401.210144
36.32 404.881805
36.33 410.997986
36.34 408.273499
36.35 400.43335
36.36 397.218414
36.37 400.33783
36.38 402.890442
36.39 407.21991
36.40 411.167908
36.41 410.40976
36.42 407.125916
36.43 402.741425
36.44 401.430695
36.45 405.372711
36.46 405.800659
36.47 405.538879
36.48 397.528046
36.49 392.916229
36.50 402.79068
36.51 407.19162
36.52 405.381989
36.53 405.547638
36.54 405.433594
36.55 400.204712
36.56 397.829926
36.57 401.990265
36.58 405.572449
36.59 396.821503
36.60 388.679993
36.61 393.465179
36.62 399.945679
36.63 403.022186
36.64 403.956696
36.65 398.755157
36.66 393.28775
36.67 394.232483
36.68 398.403076
36.69 397.640839
36.70 397.218933
36.71 400.197601
36.72 400.194855
36.73 396.368805
36.74 397.158752
36.75 397.032532
36.76 394.636749
36.77 392.628448
36.78 385.287964
36.79 380.802124
36.80 381.259796
36.81 385.319183
36.82 388.149994
36.83 388.026001
36.84 385.499512
36.85 386.214783
36.86 385.69696
36.87 384.94574
36.88 388.339569
36.89 388.020691
36.90 387.251953
36.91 388.313507
36.92 388.915314
36.93 390.478241
36.94 394.229645
36.95 397.384857
36.96 393.037598
36.97 388.796906
36.98 385.386017
36.99 386.680359
37.00 389.315887
37.01 392.865601
37.02 400.473877
37.03 398.058472
37.04 388.806183
37.05 386.887299
37.06 389.047028
37.07 387.930695
37.08 389.219727
37.09 384.892059
37.10 381.920532
37.11 380.519684
37.12 378.922638
37.13 380.312805
37.14 379.934174
37.15 375.506104
37.16 378.165863
37.17 382.165436
37.18 379.466461
37.19 379.76001
37.20 384.263947
37.21 385.084656
37.22 382.08725
37.23 381.407257
37.24 384.564484
37.25 385.437744
37.26 387.405792
37.27 388.484436
37.28 389.423706
37.29 387.9104
37.30 387.064819
37.31 386.789612
37.32 390.47583
37.33 393.710388
37.34 391.668182
37.35 387.655121
37.36 383.381866
37.37 380.876678
37.38 377.490753
37.39 378.532349
37.40 381.408112
37.41 377.314636
37.42 378.018188
37.43 385.147034
37.44 385.100037
37.45 382.667877
37.46 382.454071
37.47 382.835266
37.48 382.128784
37.49 376.785583
37.50 371.362
37.51 371.174927
37.52 371.67627
37.53 372.609222
37.54 375.924469
37.55 374.112976
37.56 371.425934
37.57 378.284882
37.58 379.035706
37.59 372.870972
37.60 374.22818
37.61 374.815155
37.62 369.316193
37.63 370.785461
37.64 369.782379
37.65 370.651031
37.66 375.639984
37.67 372.818665
37.68 369.608124
37.69 372.956604
37.70 377.03833
37.71 376.686829
37.72 383.241272
37.73 385.889832
37.74 377.740936
37.75 375.399567
37.76 378.499359
37.77 378.381653
37.78 374.720062
37.79 374.246399
37.80 378.772125
37.81 375.013428
37.82 370.254639
37.83 374.859711
37.84 377.233215
37.85 373.910736
37.86 368.414368
37.87 369.515259
37.88 373.041718
37.89 372.023438
37.90 372.93985
37.91 374.373596
37.92 369.844208
37.93 367.604462
37.94 370.243011
37.95 369.517578
37.96 369.936249
37.97 363.389038
37.98 357.731415
37.99 355.755493
38.00 363.839691
38.01 371.985016
38.02 375.277405
38.03 371.916687
38.04 364.672455
38.05 366.449646
38.06 369.337982
38.07 368.826965
38.08 372.403534
38.09 373.08374
38.10 366.289429
38.11 366.260345
38.12 368.748962
38.13 362.503815
38.14 364.405884
38.15 367.554474
38.16 369.039795
38.17 370.931122
38.18 371.158905
38.19 372.097748
38.20 374.987518
38.21 374.893585
38.22 373.635071
38.23 368.439301
38.24 365.754974
38.25 369.359589
38.26 375.406555
38.27 377.65979
38.28 378.19458
38.29 377.968811
38.30 372.793365
38.31 368.00885
38.32 366.879517
38.33 366.697327
38.34 365.247284
38.35 367.655365
38.36 371.200165
38.37 368.590515
38.38 361.984772
38.39 361.08905
38.40 363.142975
38.41 363.023865
38.42 363.465912
38.43 364.008759
38.44 364.874329
38.45 365.270264
38.46 366.215637
38.47 365.03891
38.48 366.109009
38.49 369.696594
38.50 368.213043
38.51 368.208405
38.52 367.769623
38.53 362.853302
38.54 369.565796
38.55 375.621552
38.56 373.798981
38.57 369.056335
38.58 369.06192
38.59 370.764008
38.60 369.912354
38.61 371.170685
38.62 374.853851
38.63 372.235657
38.64 372.556244
38.65 374.521332
38.66 369.320221
38.67 369.116394
38.68 367.84668
38.69 365.228027
38.70 362.808868
38.71 363.552246
38.72 359.943573
38.73 359.166168
38.74 361.289154
38.75 358.310913
38.76 356.742493
38.77 356.914276
38.78 362.220001
38.79 363.297028
38.80 360.468506
38.81 357.72113
38.82 353.804718
38.83 352.729767
38.84 351.518555
38.85 352.083496
38.86 355.529114
38.87 356.49234
38.88 357.935455
38.89 361.263306
38.90 366.590942
38.91 364.125641
38.92 358.639587
38.93 355.823853
38.94 358.700653
38.95 362.73587
38.96 363.258728
38.97 358.238617
38.98 353.875305
38.99 350.938629
39.00 351.778473
39.01 352.702942
39.02 348.099457
39.03 349.057617
39.04 350.833984
39.05 355.181641
39.06 359.433899
39.07 361.499817
39.08 363.119415
39.09 362.47522
39.10 361.339081
39.11 358.700134
39.12 355.732697
39.13 359.525635
39.14 357.97879
39.15 355.758087
39.16 355.381927
39.17 355.092651
39.18 357.075958
39.19 358.972198
39.20 359.832642
39.21 360.340942
39.22 360.77356
39.23 360.004639
39.24 362.20639
39.25 365.476746
39.26 360.764435
39.27 359.369446
39.28 361.028503
39.29 359.882111
39.30 359.091675
39.31 359.600403
39.32 361.121033
39.33 365.182068
39.34 366.142517
39.35 365.649628
39.36 364.565704
39.37 363.795532
39.38 362.103149
39.39 366.485413
39.40 368.400024
39.41 361.641083
39.42 355.233154
39.43 352.607544
39.44 353.366028
39.45 353.620453
39.46 355.538147
39.47 356.736938
39.48 361.991089
39.49 361.383209
39.50 357.418396
39.51 358.189331
39.52 361.1586
39.53 365.840759
39.54 365.63623
39.55 359.445465
39.56 359.321808
39.57 361.158875
39.58 357.184814
39.59 358.017456
39.60 358.492035
39.61 358.170288
39.62 356.428131
39.63 354.167542
39.64 351.82724
39.65 355.276184
39.66 359.556396
39.67 356.445343
39.68 357.475983
39.69 356.526978
39.70 354.661133
39.71 350.665527
39.72 349.340546
39.73 349.279968
39.74 351.865875
39.75 353.078461
39.76 350.930573
39.77 350.178619
39.78 351.512054
39.79 350.262695
39.80 352.094818
39.81 355.25943
39.82 354.401337
39.83 352.969635
39.84 356.302917
39.85 356.913361
39.86 353.53656
39.87 355.007751
39.88 358.079163
39.89 355.122528
39.90 348.693573
39.91 349.452118
39.92 355.994293
39.93 355.064301
39.94 352.690857
39.95 348.690063
39.96 347.41156
39.97 348.563934
39.98 350.108978
39.99 352.585632
40.00 352.817505
40.01 347.555817
40.02 345.779785
40.03 345.90683
40.04 344.549011
40.05 346.912933
40.06 351.614197
40.07 348.406067
40.08 347.628387
40.09 351.084106
40.10 350.784882
40.11 346.540436
40.12 341.966949
40.13 339.590973
40.14 346.0047
40.15 352.345306
40.16 348.34848
40.17 348.082733
40.18 349.20874
40.19 347.000366
40.20 348.049164
40.21 344.757965
40.22 341.618042
40.23 343.98941
40.24 345.94165
40.25 345.112885
40.26 345.90451
40.27 345.821533
40.28 346.469452
40.29 344.219513
40.30 342.262238
40.31 340.889221
40.32 341.642578
40.33 348.948181
40.34 357.968689
40.35 361.313293
40.36 353.083496
40.37 345.40271
40.38 344.729462
40.39 341.362427
40.40 343.974579
40.41 347.555511
40.42 345.153473
40.43 344.571289
40.44 347.312286
40.45 349.376587
40.46 348.733337
40.47 354.66687
40.48 354.105316
40.49 348.519531
40.50 346.434906
40.51 342.32077
40.52 343.511169
40.53 348.087311
40.54 357.559143
40.55 362.692932
40.56 368.704895
40.57 371.740112
40.58 365.555237
40.59 362.128998
40.60 358.488953
40.61 355.696289
40.62 352.486572
40.63 351.558228
40.64 353.683746
40.65 353.078247
40.66 352.301025
40.67 352.313324
40.68 353.978088
40.69 359.84491
40.70 360.639313
40.71 357.734222
40.72 358.498596
40.73 353.200317
40.74 354.958862
40.75 362.176086
40.76 361.836609
40.77 359.354614
40.78 361.46228
40.79 362.292358
40.80 365.304718
40.81 368.424988
40.82 364.31543
40.83 356.840424
40.84 352.596069
40.85 354.578217
40.86 355.53244
40.87 358.047302
40.88 357.00946
40.89 355.786377
40.90 357.814117
40.91 366.696808
40.92 372.672729
40.93 369.015869
40.94 360.483612
40.95 358.989349
40.96 363.834869
40.97 362.553345
40.98 359.908478
40.99 357.723724
41.00 355.75174
41.01 360.988525
41.02 359.943604
41.03 358.970062
41.04 361.500824
41.05 358.434235
41.06 354.630463
41.07 350.529358
41.08 354.674927
41.09 359.715424
41.10 352.429413
