!@!!GADDS PLOTSO FILE: Chi integration type
!@!!Title/SampleName: ML_MAPbX3
!@!!User: NREL
!@!!Site: NREL SERF C211; SN 2510
!@!!Frame: 081022_MLProject_000_004.gfrm
!@!!Wavelengths    1.54184   1.54056   1.54439
!@!!Frame angles: 2Theta: 28.000 Omega: 5.000 Phi: 0.000 Chi: 90.000
!@!!Integration range: 2Theta: 10.000 to 44.300  Gamma: -113.900 to -66.800
!@!!Integration method: bin normalized
!@!N
!@!SS
!@!M
!@!L 0.0 0.0 0.0 0.0
!@!XDegrees
!@!YCounts
10.00 137.111313
10.01 131.031891
10.02 124.418861
10.03 124.681549
10.04 126.218491
10.05 127.052681
10.06 124.20536
10.07 125.610664
10.08 122.122398
10.09 117.287392
10.10 121.335205
10.11 125.388496
10.12 131.655777
10.13 136.590393
10.14 134.840973
10.15 141.828369
10.16 140.793488
10.17 130.452011
10.18 131.458496
10.19 132.100082
10.20 127.571663
10.21 126.298676
10.22 119.218994
10.23 115.664597
10.24 120.170555
10.25 121.714294
10.26 120.191475
10.27 124.151459
10.28 127.718605
10.29 126.982979
10.30 128.988403
10.31 130.01564
10.32 130.543304
10.33 127.29287
10.34 126.006218
10.35 123.403793
10.36 116.365166
10.37 114.52359
10.38 112.540939
10.39 113.895279
10.40 127.709999
10.41 133.922714
10.42 129.478882
10.43 126.956001
10.44 127.097931
10.45 125.938324
10.46 120.552612
10.47 126.476677
10.48 129.876785
10.49 126.080589
10.50 127.777084
10.51 127.29863
10.52 126.091164
10.53 131.270798
10.54 134.398117
10.55 139.157364
10.56 136.653885
10.57 118.937782
10.58 121.671829
10.59 130.639648
10.60 131.803299
10.61 136.058441
10.62 136.144257
10.63 135.537491
10.64 132.645142
10.65 127.630524
10.66 137.018402
10.67 137.873718
10.68 133.185516
10.69 141.023605
10.70 147.242386
10.71 142.346146
10.72 133.627029
10.73 136.756439
10.74 140.226196
10.75 134.70546
10.76 130.304733
10.77 133.691345
10.78 134.579437
10.79 127.413422
10.80 130.414139
10.81 137.458099
10.82 133.663315
10.83 135.661163
10.84 138.650421
10.85 138.009506
10.86 144.850693
10.87 144.121887
10.88 136.281433
10.89 130.549515
10.90 132.118561
10.91 137.27858
10.92 136.506393
10.93 136.992233
10.94 143.096252
10.95 144.098404
10.96 140.621307
10.97 135.764969
10.98 132.969986
10.99 126.870316
11.00 126.417259
11.01 133.898529
11.02 140.479355
11.03 141.176132
11.04 133.047333
11.05 123.212608
11.06 120.704132
11.07 129.069641
11.08 137.181946
11.09 134.830612
11.10 137.651382
11.11 138.286682
11.12 133.886871
11.13 134.275513
11.14 132.685226
11.15 129.690567
11.16 128.814148
11.17 132.411819
11.18 138.210663
11.19 138.350006
11.20 133.640366
11.21 130.440201
11.22 132.245285
11.23 127.065598
11.24 126.513535
11.25 125.308487
11.26 123.53299
11.27 136.359222
11.28 141.161179
11.29 139.891953
11.30 138.413986
11.31 137.188507
11.32 134.894012
11.33 137.033203
11.34 140.665588
11.35 142.796906
11.36 139.120331
11.37 139.866165
11.38 147.511475
11.39 147.6138
11.40 142.204559
11.41 140.472
11.42 143.356995
11.43 143.696854
11.44 143.342346
11.45 146.033798
11.46 141.97023
11.47 139.165344
11.48 135.832336
11.49 129.301773
11.50 133.717438
11.51 142.281845
11.52 145.492447
11.53 151.633224
11.54 152.226273
11.55 147.89032
11.56 142.644806
11.57 133.352417
11.58 131.968506
11.59 129.97905
11.60 128.910858
11.61 135.061752
11.62 138.943069
11.63 141.014282
11.64 141.421341
11.65 142.352402
11.66 142.464005
11.67 139.373978
11.68 140.823227
11.69 147.554749
11.70 152.912659
11.71 151.376602
11.72 142.823441
11.73 136.856216
11.74 134.421783
11.75 132.517639
11.76 137.223633
11.77 135.94754
11.78 132.613876
11.79 136.353714
11.80 137.850616
11.81 139.946411
11.82 145.690445
11.83 147.188232
11.84 146.313736
11.85 145.148788
11.86 147.458252
11.87 154.623657
11.88 156.531143
11.89 149.638458
11.90 149.066681
11.91 149.737488
11.92 153.951782
11.93 159.287811
11.94 148.952606
11.95 137.645187
11.96 139.70047
11.97 146.039764
11.98 144.401062
11.99 146.544708
12.00 146.968811
12.01 146.55658
12.02 153.227768
12.03 157.415817
12.04 154.922684
12.05 150.829178
12.06 151.642532
12.07 147.188171
12.08 146.852539
12.09 153.63385
12.10 158.777115
12.11 156.467987
12.12 151.737
12.13 153.881241
12.14 151.553558
12.15 149.702377
12.16 153.724121
12.17 155.951263
12.18 149.439651
12.19 148.985779
12.20 158.355804
12.21 161.370743
12.22 166.488785
12.23 167.452591
12.24 164.028244
12.25 165.187012
12.26 166.383026
12.27 164.62619
12.28 165.006699
12.29 169.410583
12.30 165.513275
12.31 160.6259
12.32 159.760925
12.33 159.054062
12.34 168.296997
12.35 174.172943
12.36 170.408936
12.37 174.552048
12.38 180.677353
12.39 177.316299
12.40 172.228851
12.41 178.157211
12.42 187.209961
12.43 181.177872
12.44 174.264984
12.45 175.461609
12.46 175.518509
12.47 174.530228
12.48 167.81102
12.49 173.929153
12.50 186.882706
12.51 184.92482
12.52 184.791687
12.53 184.122772
12.54 184.276154
12.55 187.435059
12.56 184.926407
12.57 177.627884
12.58 184.180069
12.59 188.849762
12.60 183.116791
12.61 183.471268
12.62 191.858398
12.63 196.242722
12.64 190.699158
12.65 175.92601
12.66 177.466095
12.67 188.343018
12.68 180.012726
12.69 167.698914
12.70 168.719086
12.71 170.623825
12.72 170.236679
12.73 176.176071
12.74 178.234467
12.75 179.989792
12.76 178.852921
12.77 172.675903
12.78 169.985809
12.79 172.021332
12.80 179.828766
12.81 181.223663
12.82 171.9328
12.83 169.776169
12.84 172.613495
12.85 174.738602
12.86 170.697479
12.87 164.584518
12.88 159.151337
12.89 155.877899
12.90 156.345184
12.91 160.660095
12.92 165.209824
12.93 156.94017
12.94 149.731781
12.95 155.181549
12.96 155.484222
12.97 152.939789
12.98 153.876541
12.99 155.501602
13.00 157.047928
13.01 162.407562
13.02 161.330948
13.03 157.516876
13.04 160.010254
13.05 153.8694
13.06 158.972443
13.07 168.429138
13.08 157.07019
13.09 151.373886
13.10 152.501602
13.11 151.931931
13.12 147.422134
13.13 148.020035
13.14 154.114624
13.15 156.157242
13.16 162.551544
13.17 165.357361
13.18 156.454941
13.19 158.028076
13.20 159.661484
13.21 153.223694
13.22 152.279785
13.23 156.146011
13.24 156.287476
13.25 151.38765
13.26 154.177658
13.27 164.596176
13.28 167.160751
13.29 161.520172
13.30 162.837357
13.31 166.822739
13.32 162.939117
13.33 164.878159
13.34 167.345963
13.35 170.12648
13.36 168.750275
13.37 164.973709
13.38 167.620911
13.39 167.955231
13.40 166.565643
13.41 170.966446
13.42 174.863846
13.43 178.427017
13.44 182.388428
13.45 185.284592
13.46 182.538284
13.47 175.292313
13.48 174.113693
13.49 174.919601
13.50 176.789017
13.51 183.292282
13.52 188.781097
13.53 189.754288
13.54 185.187317
13.55 173.916779
13.56 171.94104
13.57 177.443893
13.58 183.06189
13.59 191.345779
13.60 200.769455
13.61 208.915573
13.62 208.495834
13.63 206.566406
13.64 205.805725
13.65 206.769424
13.66 205.459961
13.67 202.227844
13.68 207.191971
13.69 223.453262
13.70 222.722778
13.71 219.047836
13.72 220.738464
13.73 216.867447
13.74 222.125458
13.75 234.803467
13.76 241.835861
13.77 249.015289
13.78 256.759735
13.79 258.951447
13.80 259.045837
13.81 258.677002
13.82 263.70462
13.83 274.363953
13.84 281.145996
13.85 282.353485
13.86 282.895447
13.87 291.716583
13.88 308.988678
13.89 316.538635
13.90 319.995026
13.91 324.444427
13.92 333.327026
13.93 341.793121
13.94 355.641052
13.95 366.978699
13.96 368.931702
13.97 374.046051
13.98 383.276978
13.99 398.979187
14.00 413.717896
14.01 405.575897
14.02 403.198853
14.03 422.975311
14.04 435.576294
14.05 439.760803
14.06 451.328339
14.07 465.166901
14.08 474.705566
14.09 477.211243
14.10 467.990631
14.11 474.675781
14.12 482.53186
14.13 479.795868
14.14 481.627136
14.15 482.560059
14.16 493.934875
14.17 488.459656
14.18 470.664185
14.19 472.523315
14.20 468.011841
14.21 458.736664
14.22 460.796844
14.23 448.900787
14.24 431.508026
14.25 431.784485
14.26 433.871155
14.27 422.727539
14.28 409.869659
14.29 404.383057
14.30 380.334473
14.31 356.246429
14.32 342.839081
14.33 330.862793
14.34 320.608307
14.35 311.78064
14.36 306.446045
14.37 303.109985
14.38 294.593201
14.39 289.803314
14.40 275.513641
14.41 258.337067
14.42 252.153214
14.43 241.34877
14.44 228.997131
14.45 224.87883
14.46 222.24823
14.47 218.942719
14.48 219.624939
14.49 224.725677
14.50 231.205841
14.51 227.918289
14.52 218.733902
14.53 207.315033
14.54 202.091522
14.55 195.956802
14.56 191.489532
14.57 193.272095
14.58 191.015549
14.59 187.227219
14.60 186.963852
14.61 190.067322
14.62 194.710571
14.63 194.386017
14.64 188.169281
14.65 188.020569
14.66 189.644577
14.67 188.471939
14.68 183.594955
14.69 180.835236
14.70 176.739212
14.71 170.092407
14.72 176.269547
14.73 179.806305
14.74 177.673737
14.75 175.412827
14.76 166.619675
14.77 166.253433
14.78 164.620773
14.79 162.043915
14.80 168.899643
14.81 171.818726
14.82 172.185013
14.83 174.175507
14.84 172.429489
14.85 171.151917
14.86 175.050293
14.87 177.758286
14.88 172.809906
14.89 170.866486
14.90 177.389191
14.91 171.007538
14.92 157.036835
14.93 155.461807
14.94 160.150696
14.95 163.773743
14.96 164.002914
14.97 168.512894
14.98 170.69838
14.99 176.883545
15.00 178.091248
15.01 176.43541
15.02 176.546341
15.03 171.386093
15.04 173.963806
15.05 173.696289
15.06 164.535187
15.07 169.660431
15.08 179.057678
15.09 176.272781
15.10 172.001526
15.11 172.183395
15.12 176.544098
15.13 177.855881
15.14 180.381363
15.15 187.636414
15.16 182.379105
15.17 178.653732
15.18 178.275162
15.19 169.200882
15.20 168.842896
15.21 170.462418
15.22 169.972122
15.23 169.381912
15.24 172.491302
15.25 172.724792
15.26 174.486023
15.27 171.905975
15.28 170.755508
15.29 177.413849
15.30 180.789032
15.31 176.676865
15.32 171.517227
15.33 167.035843
15.34 165.383224
15.35 167.166092
15.36 165.74086
15.37 168.083206
15.38 176.812164
15.39 181.475037
15.40 191.644531
15.41 193.245422
15.42 185.561356
15.43 184.275696
15.44 181.390839
15.45 170.0513
15.46 169.42305
15.47 174.676315
15.48 174.188995
15.49 176.851715
15.50 179.948425
15.51 182.734497
15.52 179.706299
15.53 178.093307
15.54 182.120422
15.55 179.837692
15.56 174.918457
15.57 174.139938
15.58 175.772873
15.59 178.235397
15.60 179.154617
15.61 185.241653
15.62 177.646896
15.63 169.011002
15.64 172.320221
15.65 175.046661
15.66 176.998642
15.67 169.150024
15.68 170.473297
15.69 182.56221
15.70 178.734161
15.71 171.509171
15.72 175.856781
15.73 178.373627
15.74 173.405777
15.75 171.94162
15.76 176.32515
15.77 177.996185
15.78 177.664185
15.79 175.349228
15.80 176.247711
15.81 171.462631
15.82 159.175751
15.83 159.650208
15.84 167.39476
15.85 169.018921
15.86 174.361954
15.87 179.946426
15.88 182.819824
15.89 186.986343
15.90 188.504639
15.91 185.55513
15.92 181.149429
15.93 174.426987
15.94 169.770096
15.95 170.699738
15.96 180.172485
15.97 183.906937
15.98 179.173157
15.99 181.291565
16.00 178.906311
16.01 175.44043
16.02 176.555252
16.03 180.289658
16.04 181.007904
16.05 181.539749
16.06 185.212036
16.07 188.947769
16.08 187.99353
16.09 188.785599
16.10 183.747025
16.11 181.475998
16.12 186.519547
16.13 188.881363
16.14 188.392181
16.15 180.069656
16.16 177.166534
16.17 178.909882
16.18 183.817734
16.19 182.204208
16.20 184.692322
16.21 182.494202
16.22 178.834641
16.23 180.807922
16.24 182.432495
16.25 183.753113
16.26 185.548477
16.27 189.619675
16.28 184.34967
16.29 180.639038
16.30 182.272797
16.31 179.143738
16.32 178.149719
16.33 186.086884
16.34 187.559753
16.35 188.030334
16.36 189.242615
16.37 188.092941
16.38 190.270462
16.39 186.243958
16.40 184.081635
16.41 181.3965
16.42 180.919327
16.43 180.469986
16.44 183.783722
16.45 189.703064
16.46 184.309921
16.47 177.820053
16.48 174.432968
16.49 178.095932
16.50 180.151337
16.51 179.16243
16.52 184.350266
16.53 193.275192
16.54 192.3564
16.55 191.389664
16.56 193.170059
16.57 192.158249
16.58 188.703033
16.59 189.664474
16.60 191.039474
16.61 190.044937
16.62 185.973709
16.63 182.314758
16.64 186.320541
16.65 194.693268
16.66 196.517639
16.67 190.112106
16.68 189.156967
16.69 187.236191
16.70 187.386276
16.71 191.199005
16.72 192.116821
16.73 188.496155
16.74 186.823212
16.75 185.394333
16.76 185.957413
16.77 187.62558
16.78 188.145782
16.79 188.234604
16.80 186.603745
16.81 190.085388
16.82 192.212997
16.83 196.304077
16.84 191.780853
16.85 180.022278
16.86 182.399109
16.87 190.399246
16.88 193.898438
16.89 199.293503
16.90 196.996704
16.91 190.780457
16.92 183.20874
16.93 180.15303
16.94 185.435654
16.95 188.399475
16.96 186.644669
16.97 191.862259
16.98 189.926056
16.99 188.693314
17.00 189.415634
17.01 186.397491
17.02 185.059708
17.03 182.587708
17.04 184.878601
17.05 187.432678
17.06 187.637115
17.07 191.279526
17.08 192.567322
17.09 191.835464
17.10 190.75563
17.11 193.783875
17.12 195.409988
17.13 191.330872
17.14 184.083221
17.15 182.879532
17.16 188.355988
17.17 191.565063
17.18 186.485809
17.19 187.265701
17.20 196.958344
17.21 196.052643
17.22 193.280884
17.23 191.243118
17.24 193.676285
17.25 200.960571
17.26 209.203384
17.27 208.481461
17.28 201.452438
17.29 196.722488
17.30 198.357025
17.31 203.362762
17.32 197.93718
17.33 189.985138
17.34 190.869385
17.35 197.491196
17.36 194.050156
17.37 194.462067
17.38 203.126083
17.39 200.109833
17.40 194.488007
17.41 192.984665
17.42 182.685516
17.43 181.3284
17.44 192.733139
17.45 198.9785
17.46 194.891785
17.47 199.867126
17.48 206.790924
17.49 203.012589
17.50 200.902908
17.51 204.104965
17.52 200.265656
17.53 199.214996
17.54 202.412949
17.55 201.037186
17.56 195.241196
17.57 198.185593
17.58 197.020416
17.59 197.069717
17.60 206.009644
17.61 210.979904
17.62 203.053436
17.63 196.737427
17.64 194.868881
17.65 199.862869
17.66 206.670425
17.67 204.690598
17.68 200.38829
17.69 202.537857
17.70 206.766174
17.71 201.972488
17.72 202.254166
17.73 203.156036
17.74 195.990601
17.75 198.399612
17.76 208.652847
17.77 211.054184
17.78 213.170303
17.79 208.282074
17.80 201.455566
17.81 198.127853
17.82 199.747101
17.83 196.814819
17.84 196.929977
17.85 199.437927
17.86 201.741394
17.87 206.537552
17.88 210.665955
17.89 209.601898
17.90 208.403992
17.91 211.670654
17.92 212.331268
17.93 213.91098
17.94 209.000748
17.95 200.262009
17.96 194.58989
17.97 190.131439
17.98 193.03688
17.99 203.619492
18.00 206.86618
18.01 210.097778
18.02 215.236313
18.03 210.28183
18.04 201.875916
18.05 197.602036
18.06 198.644058
18.07 201.213974
18.08 198.336319
18.09 203.010971
18.10 207.671219
18.11 206.284744
18.12 204.004303
18.13 204.626083
18.14 207.447037
18.15 210.290894
18.16 209.460938
18.17 209.398834
18.18 216.360336
18.19 215.129868
18.20 212.15889
18.21 215.912216
18.22 221.737228
18.23 217.592239
18.24 214.587738
18.25 215.754166
18.26 208.862595
18.27 204.226318
18.28 206.513657
18.29 210.004013
18.30 210.304947
18.31 209.020645
18.32 209.697037
18.33 212.144943
18.34 218.616272
18.35 218.585495
18.36 213.302994
18.37 208.622513
18.38 209.198822
18.39 220.25769
18.40 227.272781
18.41 226.431427
18.42 217.906616
18.43 213.750763
18.44 215.184784
18.45 214.256775
18.46 215.541611
18.47 212.980606
18.48 207.876846
18.49 203.567078
18.50 207.137039
18.51 216.770279
18.52 215.426834
18.53 216.099106
18.54 218.889694
18.55 218.559174
18.56 212.394623
18.57 204.049042
18.58 203.983154
18.59 209.038757
18.60 211.895874
18.61 218.418259
18.62 226.485794
18.63 227.173859
18.64 225.589905
18.65 228.047989
18.66 227.857605
18.67 223.296021
18.68 220.290863
18.69 217.802643
18.70 220.629074
18.71 222.212219
18.72 215.544128
18.73 218.341125
18.74 219.419662
18.75 226.562302
18.76 228.368271
18.77 224.221375
18.78 223.307297
18.79 222.959244
18.80 224.483887
18.81 224.476028
18.82 227.534378
18.83 225.555756
18.84 218.224472
18.85 222.090805
18.86 224.70015
18.87 225.708313
18.88 224.124283
18.89 222.687759
18.90 225.662247
18.91 230.727402
18.92 236.237106
18.93 226.966385
18.94 217.08046
18.95 223.264297
18.96 219.767151
18.97 219.185852
18.98 220.042435
18.99 219.388
19.00 217.544952
19.01 221.296249
19.02 228.219421
19.03 229.855484
19.04 222.558655
19.05 219.780548
19.06 220.551651
19.07 222.743103
19.08 227.750229
19.09 233.035034
19.10 236.419312
19.11 237.025986
19.12 232.808014
19.13 226.358948
19.14 226.709122
19.15 237.383804
19.16 236.175507
19.17 231.374023
19.18 230.654846
19.19 226.402771
19.20 222.403015
19.21 225.990967
19.22 233.472595
19.23 231.806717
19.24 230.181183
19.25 237.643204
19.26 239.753098
19.27 235.470505
19.28 238.209015
19.29 242.877579
19.30 240.299622
19.31 235.995651
19.32 234.275452
19.33 236.12384
19.34 237.26593
19.35 230.382599
19.36 226.649139
19.37 235.779007
19.38 245.67334
19.39 249.489792
19.40 246.831421
19.41 240.593918
19.42 230.909393
19.43 230.366837
19.44 230.544464
19.45 229.517319
19.46 235.942719
19.47 240.801346
19.48 238.606857
19.49 239.62204
19.50 242.405563
19.51 244.942902
19.52 249.467072
19.53 249.168259
19.54 247.823364
19.55 244.648468
19.56 237.433594
19.57 235.845963
19.58 244.13913
19.59 248.880127
19.60 250.532867
19.61 249.767792
19.62 248.828995
19.63 251.839249
19.64 245.079102
19.65 239.991074
19.66 243.584488
19.67 239.512604
19.68 235.388443
19.69 232.753952
19.70 234.033829
19.71 239.001678
19.72 250.865036
19.73 255.55191
19.74 252.621094
19.75 250.175354
19.76 241.983978
19.77 248.709061
19.78 256.458527
19.79 257.036194
19.80 251.429779
19.81 254.740051
19.82 258.151947
19.83 255.094681
19.84 255.807266
19.85 257.749542
19.86 252.471649
19.87 248.585693
19.88 252.924667
19.89 256.227966
19.90 259.992523
19.91 265.518219
19.92 267.774536
19.93 269.230316
19.94 267.57019
19.95 261.671295
19.96 260.415375
19.97 266.82486
19.98 273.268768
19.99 271.489258
20.00 270.555298
20.01 272.564911
20.02 264.119385
20.03 258.753754
20.04 260.386719
20.05 267.065643
20.06 272.775757
20.07 270.9711
20.08 264.634369
20.09 268.569427
20.10 271.295746
20.11 270.198334
20.12 270.354919
20.13 269.747437
20.14 267.179077
20.15 274.547729
20.16 277.048859
20.17 270.850769
20.18 272.795593
20.19 277.852631
20.20 271.606079
20.21 263.678375
20.22 263.608734
20.23 268.040009
20.24 267.238525
20.25 270.472595
20.26 270.011627
20.27 266.021637
20.28 269.021881
20.29 264.224213
20.30 263.663849
20.31 271.923431
20.32 276.313568
20.33 269.540619
20.34 263.940613
20.35 264.807281
20.36 264.133423
20.37 259.320404
20.38 257.699677
20.39 263.156219
20.40 265.555328
20.41 271.421539
20.42 276.210114
20.43 268.83197
20.44 264.61853
20.45 262.823181
20.46 265.585022
20.47 269.504456
20.48 263.376831
20.49 258.805542
20.50 264.340393
20.51 274.184387
20.52 271.274139
20.53 268.690308
20.54 264.658691
20.55 265.302612
20.56 268.526215
20.57 268.449799
20.58 270.520905
20.59 263.747681
20.60 258.178711
20.61 265.050659
20.62 267.940033
20.63 260.521851
20.64 257.552887
20.65 267.312225
20.66 276.55545
20.67 277.609436
20.68 271.895477
20.69 276.085663
20.70 276.601746
20.71 268.930237
20.72 270.563751
20.73 279.544434
20.74 276.382507
20.75 271.268982
20.76 273.851166
20.77 276.938019
20.78 279.593689
20.79 280.009338
20.80 275.965942
20.81 276.617371
20.82 270.566711
20.83 266.557922
20.84 271.975189
20.85 281.912659
20.86 287.957275
20.87 282.592285
20.88 278.556122
20.89 268.715393
20.90 263.215057
20.91 264.49234
20.92 261.813995
20.93 264.902649
20.94 276.787231
20.95 282.246948
20.96 280.61322
20.97 284.402924
20.98 278.06015
20.99 270.427124
21.00 267.312073
21.01 264.98999
21.02 272.44696
21.03 277.590302
21.04 276.608398
21.05 275.420685
21.06 273.528351
21.07 274.302856
21.08 277.424347
21.09 282.606659
21.10 287.926147
21.11 298.063141
21.12 302.990997
21.13 295.204407
21.14 285.367615
21.15 286.188873
21.16 289.388062
21.17 287.039795
21.18 275.394073
21.19 268.789032
21.20 274.357788
21.21 278.839691
21.22 281.790741
21.23 282.44574
21.24 280.680054
21.25 286.047272
21.26 288.104584
21.27 283.338531
21.28 290.068359
21.29 289.788788
21.30 284.12616
21.31 288.043823
21.32 294.242737
21.33 289.569916
21.34 284.537048
21.35 290.600586
21.36 299.979218
21.37 295.021515
21.38 287.186157
21.39 287.216461
21.40 286.599182
21.41 284.641907
21.42 283.755096
21.43 279.23941
21.44 280.396027
21.45 288.40274
21.46 292.536255
21.47 291.574493
21.48 285.225403
21.49 283.873016
21.50 288.593964
21.51 288.183777
21.52 291.507599
21.53 290.59845
21.54 292.193268
21.55 292.244324
21.56 286.069092
21.57 287.510101
21.58 296.678558
21.59 298.436493
21.60 299.851593
21.61 301.147552
21.62 296.817169
21.63 298.417542
21.64 298.890869
21.65 297.085266
21.66 292.488831
21.67 289.871826
21.68 288.20697
21.69 291.752716
21.70 294.729004
21.71 289.78479
21.72 292.300171
21.73 299.33136
21.74 303.111389
21.75 301.895477
21.76 297.973145
21.77 303.497925
21.78 299.019714
21.79 300.091919
21.80 304.533142
21.81 301.804871
21.82 299.417206
21.83 295.176849
21.84 289.714264
21.85 294.155334
21.86 301.919159
21.87 313.258636
21.88 313.139282
21.89 303.554108
21.90 294.245331
21.91 293.693298
21.92 295.000824
21.93 299.470306
21.94 299.767426
21.95 290.30896
21.96 284.540497
21.97 295.503967
21.98 306.751312
21.99 306.723053
22.00 304.123779
22.01 298.179291
22.02 300.850861
22.03 305.2276
22.04 306.605103
22.05 311.3255
22.06 319.767303
22.07 321.661407
22.08 312.466614
22.09 299.445618
22.10 295.635406
22.11 301.955505
22.12 307.459534
22.13 305.642059
22.14 302.070129
22.15 301.428314
22.16 297.778198
22.17 292.085175
22.18 293.7117
22.19 301.751923
22.20 308.93396
22.21 303.988708
22.22 304.779175
22.23 306.808838
22.24 301.597717
22.25 307.802124
22.26 310.195892
22.27 309.306244
22.28 308.850861
22.29 308.866608
22.30 310.724915
22.31 309.238281
22.32 310.768433
22.33 310.789185
22.34 309.855927
22.35 308.795349
22.36 302.946259
22.37 308.349915
22.38 316.973145
22.39 315.240234
22.40 307.489288
22.41 301.650085
22.42 306.346832
22.43 315.795959
22.44 316.718201
22.45 314.18512
22.46 316.669769
22.47 317.885162
22.48 314.373444
22.49 309.288635
22.50 308.179047
22.51 310.601715
22.52 314.743652
22.53 309.1745
22.54 304.868652
22.55 320.853577
22.56 322.021393
22.57 309.773804
22.58 306.185059
22.59 308.769348
22.60 310.03833
22.61 314.280945
22.62 316.207306
22.63 319.830414
22.64 319.305054
22.65 321.716431
22.66 320.020203
22.67 317.816071
22.68 320.69696
22.69 322.664612
22.70 320.880737
22.71 319.578278
22.72 321.016357
22.73 323.827209
22.74 316.511749
22.75 316.440857
22.76 321.495697
22.77 322.203583
22.78 319.493439
22.79 315.505371
22.80 320.663971
22.81 330.405243
22.82 326.650818
22.83 321.636505
22.84 328.538239
22.85 329.464508
22.86 327.24469
22.87 323.610077
22.88 320.583008
22.89 320.163696
22.90 321.142914
22.91 325.841736
22.92 323.706055
22.93 322.075287
22.94 318.132813
22.95 316.108307
22.96 321.569
22.97 323.274658
22.98 320.615936
22.99 324.992523
23.00 325.764343
23.01 327.885559
23.02 326.756927
23.03 326.978363
23.04 333.050964
23.05 324.962067
23.06 321.006744
23.07 329.103149
23.08 331.988892
23.09 330.667175
23.10 332.483429
23.11 323.903351
23.12 327.02121
23.13 335.825165
23.14 325.716675
23.15 315.017151
23.16 318.069916
23.17 323.250427
23.18 329.762299
23.19 328.353607
23.20 324.60083
23.21 325.187103
23.22 325.689941
23.23 327.741333
23.24 332.334473
23.25 332.339325
23.26 329.876831
23.27 329.158997
23.28 325.992615
23.29 327.092285
23.30 334.52536
23.31 336.884369
23.32 338.523499
23.33 337.545837
23.34 334.74707
23.35 331.74234
23.36 325.375977
23.37 323.976532
23.38 326.675934
23.39 327.120789
23.40 331.070648
23.41 334.505066
23.42 330.155396
23.43 332.615753
23.44 336.153717
23.45 338.289551
23.46 337.680176
23.47 333.317017
23.48 330.977173
23.49 340.574188
23.50 341.722992
23.51 333.84906
23.52 333.890594
23.53 341.464935
23.54 345.619598
23.55 341.80069
23.56 334.566895
23.57 336.525848
23.58 338.674042
23.59 340.878052
23.60 340.274536
23.61 332.940491
23.62 333.986694
23.63 332.618408
23.64 327.359589
23.65 332.673401
23.66 337.077393
23.67 333.567078
23.68 330.8284
23.69 328.088165
23.70 327.642822
23.71 330.065033
23.72 331.533081
23.73 334.121338
23.74 337.40683
23.75 346.233978
23.76 352.940857
23.77 349.291565
23.78 338.774323
23.79 328.156952
23.80 330.337921
23.81 329.397766
23.82 320.599792
23.83 325.365326
23.84 331.083069
23.85 329.622284
23.86 326.618713
23.87 324.614624
23.88 327.091248
23.89 334.299194
23.90 333.164154
23.91 332.412323
23.92 329.602844
23.93 325.25592
23.94 327.184082
23.95 335.286163
23.96 343.526825
23.97 343.207062
23.98 337.342163
23.99 330.236145
24.00 331.380646
24.01 333.601868
24.02 330.905884
24.03 329.373199
24.04 328.200012
24.05 332.523834
24.06 340.935547
24.07 341.770966
24.08 339.710693
24.09 340.267456
24.10 346.36261
24.11 351.495483
24.12 349.877045
24.13 346.145203
24.14 347.123505
24.15 349.518555
24.16 346.037933
24.17 340.002655
24.18 329.624329
24.19 323.601776
24.20 327.981903
24.21 329.603821
24.22 332.534454
24.23 334.985413
24.24 332.511749
24.25 332.857788
24.26 335.705444
24.27 338.332153
24.28 337.754456
24.29 332.54184
24.30 331.021332
24.31 333.558136
24.32 340.217682
24.33 348.704041
24.34 349.656708
24.35 342.147369
24.36 335.625519
24.37 339.510498
24.38 344.184296
24.39 349.17981
24.40 354.746399
24.41 352.684448
24.42 342.290802
24.43 338.889893
24.44 339.834656
24.45 343.971008
24.46 347.41922
24.47 347.133636
24.48 348.487762
24.49 345.510406
24.50 346.58783
24.51 348.586639
24.52 347.867035
24.53 352.110931
24.54 349.184937
24.55 351.014496
24.56 348.40036
24.57 340.40564
24.58 338.508789
24.59 339.665741
24.60 344.044586
24.61 343.773376
24.62 339.300964
24.63 342.711639
24.64 352.05603
24.65 355.331848
24.66 355.684601
24.67 352.807312
24.68 354.268829
24.69 359.359863
24.70 353.514648
24.71 350.623871
24.72 356.080963
24.73 355.860443
24.74 354.815918
24.75 352.35379
24.76 346.990112
24.77 348.357025
24.78 348.622742
24.79 345.300171
24.80 346.900635
24.81 345.04718
24.82 341.925568
24.83 338.960938
24.84 339.741882
24.85 346.128876
24.86 353.290466
24.87 352.298584
24.88 348.745239
24.89 349.037384
24.90 353.677673
24.91 354.238403
24.92 348.177582
24.93 342.098206
24.94 351.761353
24.95 354.546539
24.96 346.632202
24.97 338.794983
24.98 340.531708
24.99 339.021057
25.00 337.670135
25.01 339.472382
25.02 332.427277
25.03 335.905365
25.04 341.865082
25.05 340.583374
25.06 344.664185
25.07 347.967804
25.08 345.115509
25.09 337.16275
25.10 327.766693
25.11 324.054352
25.12 332.670593
25.13 337.479645
25.14 340.340027
25.15 337.360779
25.16 338.740387
25.17 344.453949
25.18 349.85907
25.19 349.019531
25.20 346.977295
25.21 343.966522
25.22 339.754395
25.23 337.112823
25.24 333.377289
25.25 330.036224
25.26 330.709259
25.27 336.944397
25.28 342.138733
25.29 340.611481
25.30 347.402863
25.31 352.676239
25.32 344.592621
25.33 341.191956
25.34 337.695282
25.35 334.680695
25.36 340.391144
25.37 343.91803
25.38 336.192444
25.39 339.069
25.40 347.582214
25.41 344.029877
25.42 337.346558
25.43 331.732727
25.44 332.341125
25.45 336.941895
25.46 341.493591
25.47 345.419037
25.48 348.477753
25.49 350.150146
25.50 345.31958
25.51 342.693787
25.52 344.420563
25.53 339.902588
25.54 338.65863
25.55 344.590057
25.56 345.082855
25.57 344.248108
25.58 347.110474
25.59 345.478729
25.60 345.497223
25.61 351.134766
25.62 357.813629
25.63 351.154602
25.64 344.418488
25.65 342.900909
25.66 348.651459
25.67 351.44519
25.68 348.537689
25.69 346.478027
25.70 342.888123
25.71 343.548523
25.72 343.831787
25.73 346.779663
25.74 341.232391
25.75 326.341187
25.76 328.340332
25.77 334.414032
25.78 338.638031
25.79 343.086639
25.80 340.76712
25.81 337.835388
25.82 345.498993
25.83 349.740448
25.84 344.19043
25.85 342.323792
25.86 342.554291
25.87 346.727051
25.88 350.183746
25.89 343.962494
25.90 337.205475
25.91 335.530518
25.92 339.764008
25.93 335.898956
25.94 331.877319
25.95 334.627991
25.96 335.596893
25.97 336.731598
25.98 338.559967
25.99 335.588898
26.00 325.356506
26.01 319.953369
26.02 326.877655
26.03 333.976532
26.04 335.97348
26.05 333.384705
26.06 332.590881
26.07 333.712158
26.08 332.37912
26.09 329.490234
26.10 331.925812
26.11 334.76535
26.12 342.940826
26.13 348.010773
26.14 345.064209
26.15 341.952667
26.16 343.717621
26.17 349.747345
26.18 346.328247
26.19 335.68985
26.20 333.723572
26.21 334.516663
26.22 333.179443
26.23 335.264832
26.24 334.859711
26.25 335.493347
26.26 337.146393
26.27 333.795715
26.28 332.3638
26.29 337.50116
26.30 337.723541
26.31 334.553497
26.32 335.194977
26.33 334.943542
26.34 343.443481
26.35 347.412659
26.36 342.392426
26.37 336.274078
26.38 332.644592
26.39 327.566071
26.40 328.170227
26.41 331.902679
26.42 332.834015
26.43 335.195648
26.44 342.999695
26.45 342.654572
26.46 339.744965
26.47 336.090546
26.48 331.413055
26.49 333.771149
26.50 335.365784
26.51 333.671112
26.52 335.260651
26.53 337.835114
26.54 338.64151
26.55 327.623718
26.56 331.545868
26.57 332.809998
26.58 329.127563
26.59 330.240936
26.60 333.342926
26.61 337.137085
26.62 342.267853
26.63 339.641754
26.64 341.119019
26.65 335.431274
26.66 328.236389
26.67 330.833435
26.68 332.711548
26.69 336.780182
26.70 336.314178
26.71 336.489166
26.72 337.33551
26.73 335.851654
26.74 332.263092
26.75 334.588623
26.76 335.899933
26.77 332.615875
26.78 333.18988
26.79 333.612244
26.80 332.310364
26.81 332.512512
26.82 334.171844
26.83 340.996216
26.84 345.712524
26.85 344.685242
26.86 339.22168
26.87 333.566162
26.88 327.898468
26.89 323.296692
26.90 333.55304
26.91 343.008057
26.92 344.460999
26.93 342.833954
26.94 332.69986
26.95 330.215179
26.96 336.142059
26.97 330.789063
26.98 324.146515
26.99 327.514343
27.00 327.615967
27.01 333.733643
27.02 341.682831
27.03 338.610352
27.04 339.414612
27.05 342.078308
27.06 337.550232
27.07 334.056702
27.08 330.052734
27.09 318.663116
27.10 319.58728
27.11 329.552338
27.12 333.543182
27.13 332.268951
27.14 331.409973
27.15 333.671265
27.16 337.153473
27.17 333.621643
27.18 333.491882
27.19 336.82663
27.20 334.439545
27.21 334.767395
27.22 335.113495
27.23 331.577911
27.24 335.58017
27.25 336.277832
27.26 334.108917
27.27 329.578033
27.28 332.506134
27.29 335.9664
27.30 337.600922
27.31 333.478668
27.32 332.479095
27.33 333.752441
27.34 332.302185
27.35 334.03714
27.36 331.000122
27.37 324.053925
27.38 323.875427
27.39 331.099487
27.40 332.989929
27.41 333.067261
27.42 332.151062
27.43 330.150299
27.44 333.508667
27.45 333.039917
27.46 333.057617
27.47 334.872162
27.48 336.451111
27.49 334.396973
27.50 329.672485
27.51 327.45694
27.52 319.991425
27.53 319.331818
27.54 320.63327
27.55 320.085602
27.56 323.193176
27.57 324.054016
27.58 329.19632
27.59 335.694305
27.60 335.773468
27.61 327.164948
27.62 326.475494
27.63 324.070465
27.64 320.326172
27.65 326.46698
27.66 329.414581
27.67 333.007568
27.68 337.306274
27.69 339.683319
27.70 339.239624
27.71 341.362518
27.72 343.972351
27.73 344.537842
27.74 343.777435
27.75 342.609253
27.76 347.363525
27.77 347.189117
27.78 345.393921
27.79 343.835876
27.80 348.930115
27.81 347.429901
27.82 340.541931
27.83 339.011749
27.84 345.318756
27.85 350.025391
27.86 349.073547
27.87 349.039276
27.88 347.60553
27.89 347.509277
27.90 349.575043
27.91 355.699066
27.92 357.999542
27.93 356.799805
27.94 353.570587
27.95 350.93219
27.96 350.321136
27.97 350.421265
27.98 351.707275
27.99 353.950989
28.00 358.298309
28.01 361.835297
28.02 364.567169
28.03 364.551178
28.04 365.990997
28.05 365.267639
28.06 364.79129
28.07 370.110779
28.08 377.717224
28.09 373.32373
28.10 369.285431
28.11 369.118317
28.12 376.339844
28.13 379.522522
28.14 382.750427
28.15 390.684753
28.16 396.978668
28.17 402.227661
28.18 405.009338
28.19 400.782654
28.20 399.463501
28.21 398.582672
28.22 394.404572
28.23 398.515137
28.24 405.421814
28.25 408.265991
28.26 412.987244
28.27 424.785889
28.28 429.115631
28.29 435.537842
28.30 442.969635
28.31 452.01239
28.32 457.840729
28.33 459.354034
28.34 469.212402
28.35 478.49527
28.36 492.023682
28.37 497.282623
28.38 497.346039
28.39 499.133209
28.40 502.069153
28.41 512.011841
28.42 514.14447
28.43 517.412231
28.44 531.205444
28.45 547.752563
28.46 546.838013
28.47 534.38031
28.48 538.132263
28.49 556.936829
28.50 573.857056
28.51 576.95282
28.52 571.544373
28.53 574.062927
28.54 579.48761
28.55 578.720825
28.56 582.480164
28.57 586.935608
28.58 583.516479
28.59 588.219666
28.60 586.514832
28.61 583.82666
28.62 566.148987
28.63 554.156921
28.64 553.702942
28.65 551.763489
28.66 546.616638
28.67 542.220642
28.68 538.130737
28.69 521.610901
28.70 514.176514
28.71 506.896393
28.72 502.171753
28.73 505.002655
28.74 500.208405
28.75 492.542999
28.76 475.147186
28.77 460.75705
28.78 447.348663
28.79 439.967896
28.80 433.139801
28.81 426.897095
28.82 417.254974
28.83 419.036682
28.84 413.760223
28.85 406.883331
28.86 407.581207
28.87 399.155487
28.88 387.669586
28.89 387.865051
28.90 391.613525
28.91 387.538483
28.92 386.814575
28.93 380.680908
28.94 367.290161
28.95 369.032501
28.96 370.211884
28.97 365.525665
28.98 366.971527
28.99 364.265106
29.00 361.99881
29.01 351.75647
29.02 347.329651
29.03 349.02887
29.04 349.810486
29.05 349.440063
29.06 347.116913
29.07 343.070709
29.08 342.148193
29.09 346.899323
29.10 339.245605
29.11 341.589142
29.12 348.283569
29.13 344.67511
29.14 338.209167
29.15 335.461121
29.16 333.841675
29.17 333.906403
29.18 329.554199
29.19 326.242889
29.20 333.819489
29.21 331.823029
29.22 323.719086
29.23 324.112976
29.24 325.356354
29.25 334.196777
29.26 335.365082
29.27 327.18811
29.28 327.896057
29.29 331.799927
29.30 331.257385
29.31 328.616119
29.32 333.75238
29.33 333.042725
29.34 333.142273
29.35 329.818542
29.36 322.460144
29.37 319.235321
29.38 322.682587
29.39 329.166351
29.40 332.004364
29.41 323.389374
29.42 313.497894
29.43 309.331635
29.44 314.022125
29.45 318.100189
29.46 321.349091
29.47 321.33905
29.48 312.901947
29.49 311.209412
29.50 316.321442
29.51 321.319031
29.52 320.067535
29.53 318.951935
29.54 321.284149
29.55 319.825073
29.56 318.143402
29.57 319.806915
29.58 323.565643
29.59 328.299561
29.60 330.307281
29.61 323.783142
29.62 321.00769
29.63 326.641846
29.64 327.710785
29.65 322.458984
29.66 321.350555
29.67 320.107483
29.68 320.606873
29.69 324.4375
29.70 322.88916
29.71 322.270966
29.72 321.008881
29.73 319.919312
29.74 322.799011
29.75 322.198792
29.76 316.419739
29.77 309.826385
29.78 310.90033
29.79 312.256958
29.80 311.323669
29.81 314.634644
29.82 317.855133
29.83 319.231537
29.84 324.38089
29.85 324.228546
29.86 316.330414
29.87 314.595459
29.88 312.509583
29.89 314.147552
29.90 319.666443
29.91 323.367676
29.92 319.902344
29.93 312.123779
29.94 307.160675
29.95 309.847382
29.96 309.862335
29.97 308.81839
29.98 314.3396
29.99 328.340973
30.00 331.476929
30.01 320.895844
30.02 311.93927
30.03 311.487366
30.04 313.577454
30.05 313.916351
30.06 315.244598
30.07 317.071625
30.08 319.943451
30.09 320.04306
30.10 321.562866
30.11 322.222626
30.12 322.272308
30.13 319.534027
30.14 322.663666
30.15 326.983765
30.16 324.576752
30.17 316.229156
30.18 315.016632
30.19 311.44455
30.20 308.318085
30.21 315.069946
30.22 316.047394
30.23 308.742981
30.24 312.739044
30.25 314.321106
30.26 309.733368
30.27 308.89798
30.28 312.484406
30.29 315.658691
30.30 316.02951
30.31 313.30722
30.32 311.854797
30.33 310.091034
30.34 311.938263
30.35 310.901947
30.36 309.385956
30.37 310.874481
30.38 307.277191
30.39 303.401215
30.40 302.585541
30.41 299.884827
30.42 303.017914
30.43 304.417938
30.44 303.552521
30.45 306.578308
30.46 308.468994
30.47 313.420807
30.48 314.053467
30.49 311.485779
30.50 312.216217
30.51 311.768677
30.52 306.01947
30.53 303.253632
30.54 305.678802
30.55 307.336609
30.56 303.971222
30.57 307.700775
30.58 311.694946
30.59 313.745392
30.60 312.351318
30.61 310.127106
30.62 308.083801
30.63 310.236053
30.64 312.071899
30.65 309.130798
30.66 306.2789
30.67 305.281799
30.68 307.776642
30.69 307.451263
30.70 304.724945
30.71 305.548859
30.72 311.660339
30.73 306.504395
30.74 309.258728
30.75 308.579803
30.76 305.510132
30.77 304.559845
30.78 303.600159
30.79 307.444336
30.80 311.592346
30.81 310.991974
30.82 311.619385
30.83 308.903717
30.84 311.266327
30.85 314.115845
30.86 310.688354
30.87 305.724182
30.88 312.391113
30.89 310.205444
30.90 301.216095
30.91 299.687927
30.92 299.321899
30.93 304.200165
30.94 306.856506
30.95 306.525574
30.96 309.022949
30.97 312.630768
30.98 310.873962
30.99 305.264862
31.00 307.539307
31.01 308.873474
31.02 302.512177
31.03 302.355835
31.04 305.790649
31.05 305.990173
31.06 303.764984
31.07 302.260406
31.08 308.614838
31.09 313.848816
31.10 303.395355
31.11 301.071045
31.12 305.947174
31.13 304.240265
31.14 304.267151
31.15 307.521454
31.16 314.214142
31.17 314.903503
31.18 312.294525
31.19 310.907257
31.20 309.518097
31.21 308.647339
31.22 304.342987
31.23 304.47168
31.24 298.903229
31.25 296.620148
31.26 308.618073
31.27 312.083252
31.28 312.373199
31.29 312.255859
31.30 307.058807
31.31 309.498199
31.32 313.494598
31.33 313.955902
31.34 307.993103
31.35 302.288086
31.36 305.597626
31.37 308.681458
31.38 306.739197
31.39 308.311768
31.40 310.564423
31.41 304.367859
31.42 306.507599
31.43 310.61087
31.44 311.445984
31.45 310.050995
31.46 305.788788
31.47 306.316803
31.48 318.73056
31.49 322.865112
31.50 317.894867
31.51 317.593292
31.52 319.583801
31.53 321.999298
31.54 324.213898
31.55 330.283356
31.56 327.12262
31.57 325.49823
31.58 327.710327
31.59 327.480408
31.60 329.150055
31.61 326.027527
31.62 323.828308
31.63 327.297668
31.64 331.659851
31.65 333.119843
31.66 333.559082
31.67 334.676178
31.68 337.974731
31.69 345.148438
31.70 347.469696
31.71 345.505493
31.72 344.203217
31.73 343.941864
31.74 345.316956
31.75 343.840057
31.76 347.60611
31.77 350.976318
31.78 352.863617
31.79 350.321136
31.80 350.014954
31.81 356.637817
31.82 356.045258
31.83 357.122009
31.84 360.108307
31.85 360.80191
31.86 360.004547
31.87 362.324921
31.88 367.44577
31.89 375.762451
31.90 382.799591
31.91 390.773041
31.92 393.470642
31.93 387.851257
31.94 387.236511
31.95 397.076233
31.96 399.470184
31.97 395.616302
31.98 397.989349
31.99 401.24295
32.00 402.118958
32.01 401.396423
32.02 407.410522
32.03 408.252411
32.04 396.317871
32.05 388.131866
32.06 384.288574
32.07 380.615112
32.08 390.292938
32.09 392.984802
32.10 386.616821
32.11 385.130432
32.12 385.847534
32.13 384.611938
32.14 386.127869
32.15 382.301178
32.16 378.638428
32.17 377.789368
32.18 373.404938
32.19 370.09317
32.20 363.099487
32.21 351.55899
32.22 352.577545
32.23 354.390137
32.24 353.349091
32.25 353.548828
32.26 352.513855
32.27 350.957703
32.28 343.352386
32.29 338.023407
32.30 336.661865
32.31 333.098358
32.32 335.418823
32.33 338.068512
32.34 335.377197
32.35 334.750885
32.36 328.880493
32.37 324.518341
32.38 322.616425
32.39 316.391388
32.40 309.39035
32.41 310.425568
32.42 311.900909
32.43 307.614746
32.44 309.843567
32.45 307.262207
32.46 304.442291
32.47 307.419983
32.48 309.159668
32.49 303.709045
32.50 296.8013
32.51 293.95166
32.52 295.583252
32.53 297.868744
32.54 295.858215
32.55 296.565338
32.56 295.371674
32.57 291.713257
32.58 287.497345
32.59 291.657196
32.60 294.470856
32.61 292.659454
32.62 288.006592
32.63 290.218201
32.64 295.039673
32.65 299.525665
32.66 308.074799
32.67 303.666901
32.68 293.872131
32.69 291.052002
32.70 289.660767
32.71 284.610931
32.72 282.067993
32.73 281.637299
32.74 285.122833
32.75 297.730377
32.76 300.181549
32.77 295.344147
32.78 292.815399
32.79 289.730865
32.80 284.398254
32.81 289.436493
32.82 289.791016
32.83 279.789185
32.84 273.224274
32.85 273.654419
32.86 270.34494
32.87 272.253326
32.88 279.300537
32.89 283.107483
32.90 284.171661
32.91 283.6716
32.92 283.59668
32.93 276.931885
32.94 276.856079
32.95 279.428131
32.96 279.245361
32.97 281.945648
32.98 281.670288
32.99 277.036926
33.00 275.277435
33.01 276.097412
33.02 279.976166
33.03 279.917603
33.04 276.37854
33.05 275.005066
33.06 275.780029
33.07 280.482544
33.08 282.979614
33.09 278.595642
33.10 277.185852
33.11 277.715118
33.12 271.273438
33.13 270.113495
33.14 271.134308
33.15 270.391205
33.16 269.03656
33.17 264.68042
33.18 261.292175
33.19 266.537933
33.20 268.919525
33.21 265.723602
33.22 273.299713
33.23 276.023682
33.24 271.708252
33.25 269.805847
33.26 270.313812
33.27 269.901825
33.28 270.516418
33.29 269.413361
33.30 272.124725
33.31 272.367615
33.32 272.887878
33.33 273.258759
33.34 266.284576
33.35 260.788452
33.36 264.93869
33.37 269.595093
33.38 273.274567
33.39 275.983185
33.40 269.761932
33.41 267.79071
33.42 267.848206
33.43 264.5867
33.44 266.716339
33.45 269.618073
33.46 265.422394
33.47 266.647705
33.48 273.031128
33.49 276.378784
33.50 276.318329
33.51 279.837128
33.52 280.362701
33.53 279.573517
33.54 276.970703
33.55 272.009033
33.56 271.402008
33.57 269.372131
33.58 265.902649
33.59 262.3685
33.60 260.131439
33.61 261.450623
33.62 263.272766
33.63 266.16626
33.64 266.408966
33.65 264.191956
33.66 263.236115
33.67 261.89679
33.68 259.763397
33.69 264.649323
33.70 263.748413
33.71 264.0737
33.72 271.250397
33.73 266.732269
33.74 263.891968
33.75 267.945984
33.76 269.110413
33.77 266.580658
33.78 266.215912
33.79 267.512085
33.80 266.094391
33.81 259.540161
33.82 258.769287
33.83 261.145447
33.84 261.531342
33.85 262.288513
33.86 266.8284
33.87 265.829834
33.88 263.13147
33.89 262.323212
33.90 258.198181
33.91 256.388184
33.92 253.779953
33.93 256.099579
33.94 261.490509
33.95 262.432739
33.96 260.083679
33.97 253.215195
33.98 250.561523
33.99 252.616547
34.00 255.658051
34.01 252.930893
34.02 253.659775
34.03 252.542587
34.04 248.62587
34.05 248.128082
34.06 250.73114
34.07 254.052734
34.08 261.782318
34.09 260.02124
34.10 256.755859
34.11 258.681732
34.12 259.045746
34.13 260.855225
34.14 258.898468
34.15 253.736481
34.16 249.060074
34.17 252.844299
34.18 260.413116
34.19 260.369598
34.20 259.168579
34.21 257.435059
34.22 255.573471
34.23 257.304291
34.24 262.592651
34.25 261.960876
34.26 258.092651
34.27 259.217194
34.28 257.694092
34.29 256.057556
34.30 258.058807
34.31 254.439331
34.32 249.715393
34.33 253.111221
34.34 253.631165
34.35 253.341217
34.36 252.524597
34.37 251.14949
34.38 252.312195
34.39 254.981934
34.40 255.405869
34.41 251.974518
34.42 249.887238
34.43 244.047424
34.44 246.245911
34.45 249.510315
34.46 254.011627
34.47 254.26506
34.48 244.537033
34.49 244.192474
34.50 252.014114
34.51 254.212494
34.52 253.121765
34.53 252.10762
34.54 250.868332
34.55 249.394119
34.56 252.026215
34.57 255.571182
34.58 252.362198
34.59 249.693878
34.60 249.75563
34.61 254.949509
34.62 250.841705
34.63 246.046906
34.64 245.886139
34.65 246.638901
34.66 248.824631
34.67 246.652298
34.68 248.834503
34.69 249.506256
34.70 242.421539
34.71 240.916565
34.72 244.314514
34.73 241.504745
34.74 237.713409
34.75 237.330627
34.76 239.013275
34.77 245.833313
34.78 250.525665
34.79 252.557816
34.80 252.177917
34.81 252.127487
34.82 253.80368
34.83 253.456635
34.84 252.229218
34.85 244.795349
34.86 244.876633
34.87 250.119461
34.88 255.303238
34.89 259.279938
34.90 257.402588
34.91 255.341354
34.92 255.082626
34.93 252.808472
34.94 253.126572
34.95 253.540649
34.96 250.67807
34.97 251.546844
34.98 255.517242
34.99 258.042114
35.00 251.131821
35.01 244.67894
35.02 248.280289
35.03 253.160522
35.04 257.339935
35.05 262.205902
35.06 261.893799
35.07 260.825256
35.08 256.563171
35.09 252.076553
35.10 246.36676
35.11 246.379364
35.12 249.51358
35.13 253.67775
35.14 251.760956
35.15 248.163788
35.16 248.085938
35.17 252.155655
35.18 253.944046
35.19 248.620926
35.20 243.803497
35.21 245.223114
35.22 247.261429
35.23 246.555145
35.24 245.242126
35.25 244.490265
35.26 250.952225
35.27 250.854355
35.28 246.008438
35.29 241.4767
35.30 235.896591
35.31 235.880524
35.32 243.637543
35.33 250.423553
35.34 246.228439
35.35 243.427094
35.36 241.810974
35.37 240.255508
35.38 242.792313
35.39 240.37439
35.40 237.790985
35.41 236.888733
35.42 238.258453
35.43 239.128937
35.44 235.177887
35.45 237.324402
35.46 239.764328
35.47 234.883438
35.48 235.778076
35.49 235.273651
35.50 230.542725
35.51 231.520935
35.52 233.568878
35.53 235.317581
35.54 232.175095
35.55 227.661774
35.56 223.28476
35.57 224.337463
35.58 233.320694
35.59 235.624207
35.60 238.624619
35.61 239.075333
35.62 233.946259
35.63 236.087341
35.64 238.751755
35.65 234.346146
35.66 232.270599
35.67 234.089539
35.68 232.667389
35.69 228.884888
35.70 232.036743
35.71 234.885712
35.72 231.747101
35.73 226.047714
35.74 224.65332
35.75 227.209656
35.76 228.373032
35.77 229.132935
35.78 232.79364
35.79 233.855026
35.80 232.334259
35.81 229.68634
35.82 229.457474
35.83 232.180176
35.84 235.613846
35.85 236.377426
35.86 231.569977
35.87 225.99884
35.88 222.878662
35.89 218.856735
35.90 219.978958
35.91 221.719376
35.92 214.211746
35.93 212.377975
35.94 212.768707
35.95 216.752045
35.96 223.892365
35.97 226.542114
35.98 224.732956
35.99 221.444855
36.00 221.799515
36.01 222.25267
36.02 227.039063
36.03 228.80658
36.04 224.715866
36.05 220.011368
36.06 217.5513
36.07 220.357208
36.08 223.635818
36.09 221.22319
36.10 215.514954
36.11 215.074417
36.12 221.163727
36.13 229.643173
36.14 231.765335
36.15 227.440857
36.16 222.779144
36.17 218.900665
36.18 225.12149
36.19 226.235886
36.20 216.939484
36.21 216.37912
36.22 223.471649
36.23 223.973785
36.24 221.986023
36.25 220.199432
36.26 221.032669
36.27 219.546494
36.28 219.534485
36.29 223.377716
36.30 223.603943
36.31 220.508926
36.32 213.977722
36.33 212.376785
36.34 211.896957
36.35 209.857376
36.36 209.188843
36.37 210.738892
36.38 214.804367
36.39 217.744446
36.40 211.614029
36.41 207.683746
36.42 208.979584
36.43 208.250534
36.44 208.121704
36.45 208.069122
36.46 209.958374
36.47 212.330872
36.48 212.507675
36.49 209.607544
36.50 213.408066
36.51 217.638123
36.52 215.434479
36.53 216.727325
36.54 214.894577
36.55 207.836166
36.56 206.252151
36.57 208.22377
36.58 212.354248
36.59 220.076691
36.60 218.59407
36.61 212.975784
36.62 211.016922
36.63 207.457825
36.64 209.535706
36.65 211.27829
36.66 210.371201
36.67 207.018265
36.68 203.816513
36.69 207.765305
36.70 213.784515
36.71 213.195419
36.72 209.62825
36.73 212.768066
36.74 212.249344
36.75 212.10939
36.76 219.601898
36.77 219.963074
36.78 212.940201
36.79 208.70195
36.80 211.134613
36.81 209.891373
36.82 210.56636
36.83 212.78363
36.84 212.464523
36.85 209.9561
36.86 206.138916
36.87 207.382645
36.88 210.033356
36.89 208.126648
36.90 208.585968
36.91 206.776108
36.92 202.624451
36.93 206.206131
36.94 207.682465
36.95 205.384857
36.96 202.583862
36.97 207.917221
36.98 214.837311
36.99 213.232361
37.00 207.626816
37.01 202.757751
37.02 201.232513
37.03 204.014496
37.04 204.184204
37.05 203.555511
37.06 201.016022
37.07 202.741837
37.08 203.040298
37.09 204.360596
37.10 212.862106
37.11 215.466293
37.12 208.74231
37.13 207.993179
37.14 211.928314
37.15 209.16864
37.16 205.43988
37.17 205.855011
37.18 201.676865
37.19 200.262268
37.20 198.384338
37.21 197.71608
37.22 200.608582
37.23 203.399139
37.24 202.704849
37.25 204.428452
37.26 208.357224
37.27 210.969162
37.28 211.023941
37.29 208.344589
37.30 209.574677
37.31 209.36171
37.32 205.716614
37.33 201.17955
37.34 202.888351
37.35 203.667892
37.36 199.21553
37.37 197.89151
37.38 199.361511
37.39 196.568588
37.40 195.576935
37.41 204.142426
37.42 203.306854
37.43 200.221817
37.44 202.428146
37.45 199.261597
37.46 195.022217
37.47 200.879227
37.48 205.95079
37.49 204.978683
37.50 196.770966
37.51 188.346512
37.52 196.785095
37.53 199.07077
37.54 197.053345
37.55 199.432053
37.56 199.19899
37.57 201.158707
37.58 203.17569
37.59 206.500412
37.60 206.831497
37.61 200.383072
37.62 194.158127
37.63 196.55957
37.64 195.707016
37.65 196.468155
37.66 200.009857
37.67 200.018585
37.68 201.041214
37.69 195.980331
37.70 195.799118
37.71 200.82785
37.72 197.77063
37.73 198.741394
37.74 200.439621
37.75 195.09111
37.76 197.090546
37.77 196.860977
37.78 195.685074
37.79 199.254517
37.80 196.908356
37.81 191.237045
37.82 186.825302
37.83 188.808685
37.84 193.129272
37.85 196.820847
37.86 199.390182
37.87 195.70285
37.88 189.993515
37.89 197.817245
37.90 202.771362
37.91 198.630585
37.92 198.754959
37.93 193.584778
37.94 191.901428
37.95 198.823822
37.96 200.755447
37.97 192.497574
37.98 186.965988
37.99 190.515762
38.00 192.208344
38.01 197.626068
38.02 199.074203
38.03 198.516144
38.04 199.25769
38.05 198.050049
38.06 196.716125
38.07 195.004608
38.08 196.159561
38.09 199.639099
38.10 199.530991
38.11 194.504272
38.12 191.913132
38.13 190.288223
38.14 191.357162
38.15 193.068436
38.16 195.880936
38.17 195.547928
38.18 196.904327
38.19 195.392319
38.20 187.114746
38.21 190.705887
38.22 196.511215
38.23 192.109634
38.24 188.095627
38.25 188.92247
38.26 188.435944
38.27 188.173691
38.28 194.150192
38.29 191.970322
38.30 189.653137
38.31 190.753143
38.32 190.282501
38.33 194.493362
38.34 194.504578
38.35 192.348846
38.36 194.682663
38.37 194.274857
38.38 194.640945
38.39 196.204697
38.40 193.016434
38.41 189.797775
38.42 192.27037
38.43 195.759644
38.44 199.640106
38.45 203.734772
38.46 199.500107
38.47 200.35437
38.48 205.995712
38.49 200.263184
38.50 191.189484
38.51 189.496674
38.52 193.516617
38.53 195.944016
38.54 194.956543
38.55 193.873856
38.56 192.71698
38.57 194.38472
38.58 196.576599
38.59 193.514282
38.60 189.542557
38.61 186.244843
38.62 186.294968
38.63 191.66626
38.64 191.00621
38.65 189.306763
38.66 193.501709
38.67 195.038162
38.68 195.739807
38.69 195.68013
38.70 196.488785
38.71 195.387085
38.72 193.026749
38.73 191.75769
38.74 190.070068
38.75 192.563538
38.76 197.188354
38.77 198.571854
38.78 197.855026
38.79 198.24556
38.80 195.185745
38.81 189.316772
38.82 186.511169
38.83 188.194763
38.84 190.29599
38.85 186.463699
38.86 185.267792
38.87 190.179749
38.88 193.551544
38.89 195.285385
38.90 193.055344
38.91 192.074982
38.92 191.810043
38.93 191.12851
38.94 194.603378
38.95 195.987427
38.96 191.513901
38.97 185.168533
38.98 183.714706
38.99 190.618362
39.00 194.307953
39.01 191.919815
39.02 190.503235
39.03 188.178589
39.04 186.20726
39.05 186.814728
39.06 183.261795
39.07 182.475113
39.08 181.338043
39.09 183.319702
39.10 188.49968
39.11 186.344833
39.12 186.710205
39.13 189.638596
39.14 185.21489
39.15 182.659012
39.16 185.341507
39.17 185.314743
39.18 183.167114
39.19 180.366486
39.20 180.41861
39.21 183.90596
39.22 177.652725
39.23 173.71936
39.24 178.376785
39.25 181.972122
39.26 183.954315
39.27 186.886719
39.28 189.422729
39.29 182.337738
39.30 179.169846
39.31 183.011475
39.32 187.430817
39.33 190.947403
39.34 187.715561
39.35 183.90625
39.36 188.498199
39.37 193.313766
39.38 191.507278
39.39 189.10051
39.40 185.920609
39.41 187.214813
39.42 189.328522
39.43 186.468445
39.44 186.107758
39.45 185.802124
39.46 182.664139
39.47 184.606277
39.48 189.488052
39.49 185.62149
39.50 180.888779
39.51 185.035065
39.52 189.035812
39.53 188.122086
39.54 182.943863
39.55 180.844925
39.56 185.086456
39.57 191.294388
39.58 192.130325
39.59 184.508469
39.60 179.228287
39.61 184.123352
39.62 190.675735
39.63 188.926147
39.64 186.94252
39.65 184.562271
39.66 182.345337
39.67 184.211761
39.68 185.172577
39.69 187.569809
39.70 187.352951
39.71 186.557556
39.72 185.586456
39.73 185.076157
39.74 188.390198
39.75 186.675186
39.76 183.679565
39.77 185.072281
39.78 184.746475
39.79 186.040527
39.80 181.314102
39.81 177.732498
39.82 182.41983
39.83 184.723053
39.84 183.352371
39.85 187.53566
39.86 186.067047
39.87 184.25415
39.88 188.917618
39.89 189.759979
39.90 189.798706
39.91 188.434204
39.92 187.473907
39.93 183.214874
39.94 182.952072
39.95 177.531769
39.96 172.616074
39.97 173.742798
39.98 178.63324
39.99 188.060471
40.00 190.425018
40.01 190.216888
40.02 188.780594
40.03 188.89151
40.04 189.480896
40.05 192.268677
40.06 192.384659
40.07 188.625061
40.08 185.367859
40.09 184.761017
40.10 189.966049
40.11 192.713806
40.12 193.242889
40.13 190.783325
40.14 189.459702
40.15 187.705048
40.16 186.861023
40.17 187.050095
40.18 189.417007
40.19 191.388229
40.20 186.974365
40.21 183.344116
40.22 186.35083
40.23 190.227005
40.24 193.69574
40.25 193.654495
40.26 186.237961
40.27 187.902039
40.28 191.725281
40.29 191.211273
40.30 185.533569
40.31 184.027603
40.32 189.451813
40.33 192.14827
40.34 194.2742
40.35 196.240829
40.36 194.95343
40.37 193.030212
40.38 192.183868
40.39 191.295349
40.40 192.235687
40.41 194.122818
40.42 194.806122
40.43 196.147278
40.44 196.153839
40.45 194.717468
40.46 195.082031
40.47 193.804138
40.48 198.051758
40.49 197.584015
40.50 192.512024
40.51 192.768448
40.52 194.436569
40.53 198.109711
40.54 201.283401
40.55 202.394882
40.56 200.625687
40.57 196.635605
40.58 194.221558
40.59 200.445572
40.60 202.125961
40.61 199.939178
40.62 198.112549
40.63 198.102295
40.64 199.829819
40.65 200.30101
40.66 208.493835
40.67 212.971741
40.68 210.11792
40.69 209.959167
40.70 213.813095
40.71 214.343033
40.72 213.923019
40.73 211.254364
40.74 212.815292
40.75 215.197464
40.76 215.650101
40.77 214.753403
40.78 216.37619
40.79 214.859009
40.80 215.005615
40.81 220.642487
40.82 216.684937
40.83 214.28804
40.84 211.539001
40.85 207.337433
40.86 210.076309
40.87 213.517654
40.88 215.822281
40.89 218.630569
40.90 217.494385
40.91 219.381332
40.92 220.30661
40.93 221.284409
40.94 216.407547
40.95 214.931381
40.96 215.243942
40.97 216.080109
40.98 218.114746
40.99 216.258545
41.00 210.978775
41.01 207.213348
41.02 204.628998
41.03 205.573135
41.04 213.363998
41.05 212.319382
41.06 205.742386
41.07 206.612686
41.08 211.55191
41.09 214.38765
41.10 217.193665
41.11 219.093063
41.12 212.548172
41.13 206.84964
41.14 203.581467
41.15 202.248917
41.16 209.971588
41.17 211.353928
41.18 201.847443
41.19 197.35054
41.20 198.459335
41.21 199.179504
41.22 202.547455
41.23 205.886154
41.24 201.700821
41.25 197.211914
41.26 197.637009
41.27 200.341751
41.28 199.67424
41.29 193.570541
41.30 192.336334
41.31 196.476807
41.32 196.656754
41.33 198.174316
41.34 200.560944
41.35 198.790146
41.36 199.255615
41.37 203.864792
41.38 198.885529
41.39 193.977798
41.40 196.817673
41.41 195.999283
41.42 194.168823
41.43 195.896637
41.44 196.220505
41.45 196.691635
41.46 195.870468
41.47 192.898666
41.48 193.700455
41.49 191.22377
41.50 190.267639
41.51 193.971771
41.52 195.731339
41.53 198.300308
41.54 193.920197
41.55 188.263397
41.56 189.486176
41.57 191.819992
41.58 190.729843
41.59 184.952408
41.60 188.962173
41.61 193.246078
41.62 194.394241
41.63 194.616837
41.64 191.901443
41.65 192.357239
41.66 194.315994
41.67 189.518997
41.68 186.136093
41.69 187.123199
41.70 183.659683
41.71 184.831573
41.72 187.881485
41.73 189.446899
41.74 191.625916
41.75 193.242172
41.76 189.240524
41.77 187.109314
41.78 187.949234
41.79 190.683304
41.80 195.251938
41.81 196.781616
41.82 196.87735
41.83 197.266434
41.84 192.323746
41.85 190.722473
41.86 189.819473
41.87 186.675659
41.88 185.429047
41.89 189.812759
41.90 188.182602
41.91 187.08136
41.92 192.603943
41.93 194.056641
41.94 190.625168
41.95 187.140213
41.96 191.079056
41.97 190.983459
41.98 187.248291
41.99 186.488327
42.00 185.082016
42.01 186.361237
42.02 189.574081
42.03 195.443436
42.04 198.513443
42.05 198.804184
42.06 198.579178
42.07 195.968948
42.08 193.36615
42.09 190.810791
42.10 189.827835
42.11 193.184372
42.12 192.892456
42.13 191.789627
42.14 194.791229
42.15 192.396881
42.16 189.781235
42.17 189.184784
42.18 187.500397
42.19 187.062943
42.20 191.484344
42.21 195.354065
42.22 193.287323
42.23 190.076065
42.24 190.918488
42.25 191.561615
42.26 190.907272
42.27 188.867325
42.28 188.012543
42.29 190.890884
42.30 191.876266
42.31 191.986023
42.32 192.710861
42.33 193.875305
42.34 192.14653
42.35 188.71759
42.36 188.589432
42.37 190.463501
42.38 194.399475
42.39 197.934967
42.40 196.641251
42.41 193.96344
42.42 194.004852
42.43 191.996674
42.44 192.639343
42.45 195.476517
42.46 197.254456
42.47 197.860474
42.48 191.908524
42.49 188.014755
42.50 190.102921
42.51 188.362015
42.52 185.70256
42.53 189.473663
42.54 189.479538
42.55 190.41951
42.56 198.500717
42.57 202.489517
42.58 195.504623
42.59 185.247192
42.60 186.59938
42.61 189.550156
42.62 190.134399
42.63 189.740341
42.64 190.524734
42.65 194.629868
42.66 194.270905
42.67 194.122681
42.68 191.547272
42.69 191.010132
42.70 196.35936
42.71 193.76564
42.72 190.855881
42.73 191.131729
42.74 192.467224
42.75 193.366272
42.76 194.101013
42.77 194.435745
42.78 191.736191
42.79 189.971481
42.80 191.218262
42.81 192.426971
42.82 191.123337
42.83 188.955536
42.84 191.647385
42.85 194.147995
42.86 193.327393
42.87 194.485901
42.88 192.541183
42.89 187.599503
42.90 189.797668
42.91 191.776031
42.92 192.389008
42.93 190.4534
42.94 197.091705
42.95 204.031769
42.96 199.990631
42.97 196.32225
42.98 194.470154
42.99 193.817398
43.00 191.293045
43.01 192.023621
43.02 195.894348
43.03 199.484177
43.04 197.884308
43.05 192.349792
43.06 191.071976
43.07 192.76564
43.08 198.461578
43.09 202.856491
43.10 203.067123
43.11 201.4104
43.12 203.545563
43.13 205.401352
43.14 207.70285
43.15 208.575958
43.16 205.767212
43.17 201.408005
43.18 198.804947
43.19 202.64151
43.20 206.766342
43.21 209.62117
43.22 209.625046
43.23 207.120926
43.24 206.607391
43.25 204.988586
43.26 204.474274
43.27 207.720108
43.28 207.780045
43.29 210.901398
43.30 215.415222
43.31 214.709656
43.32 214.323502
43.33 210.620102
43.34 210.76825
43.35 212.194321
43.36 205.475662
43.37 206.683823
43.38 212.547195
43.39 217.165604
43.40 219.135757
43.41 215.563019
43.42 215.056168
43.43 217.407608
43.44 215.243652
43.45 211.228989
43.46 204.748978
43.47 205.304398
43.48 213.614456
43.49 214.755295
43.50 213.272476
43.51 211.263397
43.52 212.388412
43.53 212.011215
43.54 211.829132
43.55 210.985809
43.56 207.754166
43.57 212.988785
43.58 213.042694
43.59 207.988922
43.60 207.240982
43.61 204.216431
43.62 204.100113
43.63 206.666046
43.64 209.751312
43.65 210.578278
43.66 212.543579
43.67 212.525574
43.68 208.151535
43.69 204.168991
43.70 204.107635
43.71 207.620255
43.72 209.583496
43.73 208.626328
43.74 207.935532
43.75 210.119156
43.76 207.687393
43.77 202.611588
43.78 200.135544
43.79 192.39122
43.80 194.978226
43.81 204.096054
43.82 204.374512
43.83 203.020767
43.84 201.991974
43.85 200.674347
43.86 195.547714
43.87 197.754532
43.88 198.680466
43.89 195.372055
43.90 193.73053
43.91 191.5634
43.92 194.937485
43.93 197.922363
43.94 197.034866
43.95 191.73288
43.96 187.937668
43.97 189.041321
43.98 193.265518
43.99 194.187363
44.00 192.541916
44.01 193.143326
44.02 194.747406
44.03 198.220963
44.04 195.433823
44.05 191.536179
44.06 188.558899
44.07 182.812485
44.08 184.968674
44.09 189.824677
44.10 188.577179
44.11 188.465088
44.12 188.839081
44.13 190.476349
44.14 190.075058
44.15 186.317947
44.16 186.130112
44.17 189.92218
44.18 194.044678
44.19 191.170197
44.20 188.613129
44.21 188.893478
44.22 189.791382
44.23 188.273819
44.24 184.022369
44.25 182.605087
44.26 182.235062
44.27 180.222961
44.28 183.170898
44.29 188.546005
44.30 185.387253
