!@!!GADDS PLOTSO FILE: Chi integration type
!@!!Title/SampleName: ML_MAPbX3
!@!!User: NREL
!@!!Site: NREL SERF C211; SN 2510
!@!!Frame: 081022_MLProject_000_010.gfrm
!@!!Wavelengths    1.54184   1.54056   1.54439
!@!!Frame angles: 2Theta: 28.000 Omega: 5.000 Phi: 0.000 Chi: 90.000
!@!!Integration range: 2Theta: 10.000 to 41.100  Gamma: -120.400 to -60.400
!@!!Integration method: bin normalized
!@!N
!@!SS
!@!M
!@!L 0.0 0.0 0.0 0.0
!@!XDegrees
!@!YCounts
10.00 221.434647
10.01 221.376816
10.02 228.864349
10.03 228.707687
10.04 231.030563
10.05 229.927338
10.06 222.162537
10.07 216.553436
10.08 220.478775
10.09 224.081131
10.10 224.583755
10.11 241.764984
10.12 247.154037
10.13 241.595108
10.14 246.2229
10.15 240.642731
10.16 234.01973
10.17 229.170883
10.18 226.059525
10.19 236.425827
10.20 247.762329
10.21 248.539825
10.22 239.293579
10.23 231.154358
10.24 230.174942
10.25 234.79483
10.26 232.944962
10.27 237.458618
10.28 245.870453
10.29 245.757767
10.30 243.904327
10.31 239.28392
10.32 243.259232
10.33 242.982239
10.34 242.876984
10.35 247.084198
10.36 240.630905
10.37 237.505371
10.38 239.084503
10.39 239.765945
10.40 238.803955
10.41 242.523666
10.42 236.638733
10.43 228.350906
10.44 235.460068
10.45 243.052551
10.46 248.628799
10.47 250.155762
10.48 247.107086
10.49 244.430466
10.50 236.560013
10.51 236.845963
10.52 236.705856
10.53 233.090927
10.54 230.338806
10.55 221.847656
10.56 226.778305
10.57 236.321823
10.58 238.066971
10.59 235.621002
10.60 238.131073
10.61 239.049011
10.62 237.450531
10.63 238.43457
10.64 232.509872
10.65 226.886002
10.66 228.983719
10.67 237.224487
10.68 243.968475
10.69 239.601257
10.70 237.272446
10.71 240.758774
10.72 241.420212
10.73 244.738098
10.74 245.994339
10.75 248.739212
10.76 256.811737
10.77 258.0802
10.78 260.025299
10.79 262.693756
10.80 255.647476
10.81 251.762131
10.82 250.643356
10.83 244.155212
10.84 241.545715
10.85 238.835495
10.86 241.941528
10.87 247.804367
10.88 247.255264
10.89 251.839233
10.90 252.89209
10.91 251.032242
10.92 247.969528
10.93 242.760513
10.94 245.866791
10.95 249.02652
10.96 246.940521
10.97 248.047211
10.98 252.598969
10.99 253.694794
11.00 252.697052
11.01 255.644165
11.02 254.179306
11.03 253.707336
11.04 252.451447
11.05 249.978317
11.06 251.475769
11.07 247.987671
11.08 247.087814
11.09 247.641083
11.10 252.456497
11.11 257.92099
11.12 257.891113
11.13 253.515015
11.14 259.032227
11.15 262.9505
11.16 256.305664
11.17 250.723557
11.18 246.674744
11.19 247.588318
11.20 258.249054
11.21 258.691711
11.22 248.423935
11.23 248.535599
11.24 254.856064
11.25 255.755493
11.26 254.405426
11.27 250.775558
11.28 243.677521
11.29 240.96489
11.30 242.436768
11.31 247.556763
11.32 249.758011
11.33 252.461365
11.34 255.54837
11.35 257.528137
11.36 255.892014
11.37 252.741623
11.38 254.251083
11.39 252.209549
11.40 245.230896
11.41 246.184921
11.42 247.362961
11.43 243.133926
11.44 248.976791
11.45 248.531082
11.46 253.796982
11.47 265.374664
11.48 261.578949
11.49 261.795807
11.50 263.628601
11.51 259.328247
11.52 259.724792
11.53 249.479721
11.54 244.083588
11.55 254.668716
11.56 261.833435
11.57 262.833435
11.58 260.492798
11.59 252.335312
11.60 248.952209
11.61 255.495499
11.62 253.260757
11.63 258.555878
11.64 259.270081
11.65 256.89798
11.66 255.033066
11.67 260.252533
11.68 272.695679
11.69 266.518829
11.70 265.616486
11.71 271.728851
11.72 269.323944
11.73 265.727051
11.74 265.874786
11.75 266.210541
11.76 260.793274
11.77 255.46106
11.78 251.909515
11.79 253.905823
11.80 258.462677
11.81 261.95047
11.82 262.285522
11.83 265.74234
11.84 272.213654
11.85 270.644653
11.86 269.422485
11.87 273.232452
11.88 280.651642
11.89 282.227875
11.90 277.620667
11.91 274.152252
11.92 266.35141
11.93 261.377594
11.94 260.987732
11.95 261.516663
11.96 257.620728
11.97 260.397461
11.98 265.770203
11.99 266.503693
12.00 270.114136
12.01 271.930389
12.02 269.138702
12.03 266.164703
12.04 268.826233
12.05 275.565887
12.06 272.384033
12.07 267.349335
12.08 270.72879
12.09 271.233521
12.10 273.632568
12.11 282.895569
12.12 286.738983
12.13 285.307861
12.14 284.094177
12.15 278.640778
12.16 281.407074
12.17 289.275391
12.18 288.074707
12.19 277.021393
12.20 270.122345
12.21 270.870178
12.22 278.266388
12.23 283.297455
12.24 281.102142
12.25 277.407288
12.26 274.277618
12.27 282.119293
12.28 282.166046
12.29 284.188416
12.30 291.91217
12.31 279.848602
12.32 266.294189
12.33 272.082245
12.34 274.29364
12.35 275.543488
12.36 288.501648
12.37 290.535736
12.38 291.748077
12.39 299.49115
12.40 304.034454
12.41 301.244904
12.42 296.971741
12.43 299.091797
12.44 301.249908
12.45 299.535248
12.46 297.45639
12.47 303.055145
12.48 305.231628
12.49 298.917114
12.50 288.332458
12.51 287.309021
12.52 297.222656
12.53 295.732605
12.54 289.81369
12.55 293.255371
12.56 296.607819
12.57 297.768311
12.58 297.623596
12.59 294.625793
12.60 290.187744
12.61 285.075104
12.62 285.277313
12.63 291.080109
12.64 292.837006
12.65 292.840576
12.66 294.772858
12.67 293.986694
12.68 285.979034
12.69 284.063904
12.70 290.748047
12.71 293.188354
12.72 285.605377
12.73 280.90274
12.74 288.403931
12.75 289.054382
12.76 290.795837
12.77 299.805939
12.78 302.975739
12.79 300.101501
12.80 299.69693
12.81 291.918518
12.82 279.276672
12.83 290.463226
12.84 300.025543
12.85 286.701233
12.86 277.038116
12.87 272.518188
12.88 280.835052
12.89 287.203705
12.90 287.331848
12.91 281.067505
12.92 281.499359
12.93 296.933533
12.94 299.043152
12.95 290.190582
12.96 285.467346
12.97 290.693176
12.98 288.302399
12.99 280.765076
13.00 282.562195
13.01 281.907257
13.02 282.010254
13.03 286.460083
13.04 281.488708
13.05 278.572998
13.06 283.84201
13.07 290.685394
13.08 294.573151
13.09 290.071808
13.10 291.155151
13.11 288.360901
13.12 288.637939
13.13 300.354156
13.14 294.256012
13.15 289.258942
13.16 286.224731
13.17 287.23111
13.18 291.266693
13.19 285.342957
13.20 284.545135
13.21 282.60321
13.22 277.962616
13.23 277.930878
13.24 280.460663
13.25 286.728333
13.26 296.205261
13.27 298.841217
13.28 293.297943
13.29 285.5177
13.30 280.357513
13.31 282.924652
13.32 295.774506
13.33 306.948486
13.34 304.56366
13.35 306.256744
13.36 306.111633
13.37 293.603699
13.38 285.898163
13.39 292.514648
13.40 303.985992
13.41 304.290649
13.42 302.071869
13.43 304.253448
13.44 301.70108
13.45 300.60733
13.46 307.850128
13.47 300.802948
13.48 295.216827
13.49 300.165649
13.50 301.994568
13.51 305.222229
13.52 308.086914
13.53 305.319977
13.54 306.358643
13.55 308.858032
13.56 309.099274
13.57 311.804749
13.58 304.929779
13.59 301.085297
13.60 306.571136
13.61 299.881409
13.62 289.260803
13.63 297.421936
13.64 308.479248
13.65 306.195343
13.66 308.355774
13.67 322.567108
13.68 329.019165
13.69 336.030884
13.70 344.265564
13.71 346.712708
13.72 343.809723
13.73 336.545441
13.74 336.819611
13.75 338.055817
13.76 340.629211
13.77 346.926788
13.78 345.21402
13.79 355.338196
13.80 353.527954
13.81 345.638428
13.82 355.944305
13.83 371.884125
13.84 384.145325
13.85 390.702759
13.86 398.613831
13.87 400.948547
13.88 396.465729
13.89 395.281555
13.90 400.169861
13.91 408.576752
13.92 415.947144
13.93 417.369843
13.94 424.010284
13.95 433.04129
13.96 442.327881
13.97 449.628601
13.98 456.016296
13.99 453.596283
14.00 455.608795
14.01 472.405334
14.02 489.49295
14.03 500.811493
14.04 502.87735
14.05 504.284119
14.06 513.842529
14.07 527.443359
14.08 534.6875
14.09 546.332825
14.10 574.805054
14.11 604.488037
14.12 614.377869
14.13 633.523132
14.14 644.088196
14.15 649.182617
14.16 672.198853
14.17 697.728088
14.18 713.692871
14.19 734.701782
14.20 756.412292
14.21 771.279602
14.22 795.841858
14.23 820.673401
14.24 853.212341
14.25 882.608093
14.26 902.628235
14.27 915.716553
14.28 941.774292
14.29 957.706909
14.30 966.603516
14.31 976.947571
14.32 1019.089783
14.33 1052.597168
14.34 1071.050415
14.35 1098.59021
14.36 1126.267212
14.37 1123.348999
14.38 1129.50647
14.39 1136.468262
14.40 1144.867188
14.41 1167.643555
14.42 1184.481689
14.43 1190.301636
14.44 1181.30127
14.45 1161.735718
14.46 1161.637451
14.47 1162.338989
14.48 1146.870117
14.49 1132.355591
14.50 1119.737305
14.51 1096.983154
14.52 1073.971069
14.53 1046.731934
14.54 1024.078003
14.55 983.057739
14.56 948.687317
14.57 905.903687
14.58 858.415039
14.59 827.980774
14.60 798.291992
14.61 776.011658
14.62 738.554749
14.63 705.398254
14.64 680.338074
14.65 650.812134
14.66 619.277588
14.67 600.234009
14.68 580.043152
14.69 561.671936
14.70 543.671143
14.71 527.634888
14.72 500.375305
14.73 487.069611
14.74 472.584839
14.75 456.870941
14.76 446.22171
14.77 430.36264
14.78 416.549072
14.79 420.870483
14.80 422.41922
14.81 414.430328
14.82 402.019592
14.83 388.371582
14.84 391.365479
14.85 389.901276
14.86 374.19101
14.87 366.343353
14.88 366.081573
14.89 363.465118
14.90 366.328888
14.91 367.378357
14.92 367.014679
14.93 362.859161
14.94 361.96933
14.95 365.956604
14.96 364.553528
14.97 361.116089
14.98 360.084015
14.99 358.07309
15.00 355.745056
15.01 355.687317
15.02 354.614471
15.03 357.550079
15.04 352.555725
15.05 348.112274
15.06 345.530609
15.07 341.292114
15.08 349.128448
15.09 355.820374
15.10 349.929321
15.11 346.468842
15.12 354.945648
15.13 359.629974
15.14 358.153412
15.15 357.984924
15.16 352.873413
15.17 347.466888
15.18 343.604797
15.19 349.174805
15.20 350.194
15.21 346.422577
15.22 350.774628
15.23 355.656891
15.24 355.88855
15.25 355.457703
15.26 362.875244
15.27 369.808075
15.28 370.259705
15.29 364.835999
15.30 359.320129
15.31 358.09906
15.32 361.05249
15.33 367.05484
15.34 376.973633
15.35 375.971252
15.36 377.335724
15.37 388.300659
15.38 388.301392
15.39 390.081757
15.40 388.950958
15.41 382.540497
15.42 383.110443
15.43 380.322266
15.44 365.999725
15.45 362.984436
15.46 379.16571
15.47 376.417145
15.48 366.707855
15.49 359.283691
15.50 350.196625
15.51 342.792786
15.52 336.634705
15.53 335.4104
15.54 339.949127
15.55 346.483215
15.56 352.476013
15.57 353.420898
15.58 343.903961
15.59 340.954773
15.60 345.310791
15.61 348.195526
15.62 343.793365
15.63 335.509003
15.64 326.724945
15.65 322.607727
15.66 323.540131
15.67 326.030334
15.68 329.274109
15.69 332.373962
15.70 331.997223
15.71 331.729462
15.72 334.996979
15.73 337.796844
15.74 335.670441
15.75 339.89151
15.76 341.876129
15.77 333.290192
15.78 331.120026
15.79 336.930908
15.80 338.003265
15.81 339.281982
15.82 340.148865
15.83 334.00592
15.84 329.399536
15.85 330.046906
15.86 337.146637
15.87 344.305786
15.88 340.465729
15.89 342.748688
15.90 344.423859
15.91 338.582123
15.92 332.570099
15.93 329.922089
15.94 332.492218
15.95 328.15567
15.96 335.091797
15.97 342.795807
15.98 336.164215
15.99 335.277313
16.00 335.861359
16.01 339.529755
16.02 339.779633
16.03 341.427734
16.04 338.379669
16.05 338.889282
16.06 341.624451
16.07 341.118225
16.08 342.997253
16.09 346.933502
16.10 341.113678
16.11 333.919861
16.12 338.892029
16.13 338.898987
16.14 345.918152
16.15 343.973633
16.16 340.126312
16.17 345.053772
16.18 351.187897
16.19 346.374786
16.20 334.507996
16.21 321.160889
16.22 311.453888
16.23 318.786743
16.24 330.321655
16.25 337.758942
16.26 343.150177
16.27 347.195709
16.28 344.016266
16.29 333.987274
16.30 331.244781
16.31 333.800079
16.32 333.861053
16.33 341.021179
16.34 345.048553
16.35 346.562073
16.36 345.444885
16.37 347.823425
16.38 358.656281
16.39 357.540527
16.40 349.259216
16.41 348.655121
16.42 339.121002
16.43 337.874634
16.44 346.582458
16.45 344.6492
16.46 347.577423
16.47 347.612457
16.48 338.325745
16.49 332.629059
16.50 338.608337
16.51 341.033325
16.52 337.83902
16.53 341.842224
16.54 345.151123
16.55 346.037933
16.56 347.091461
16.57 343.722443
16.58 346.634857
16.59 352.347656
16.60 356.215973
16.61 356.835846
16.62 348.639343
16.63 347.991272
16.64 355.722076
16.65 356.466095
16.66 359.450378
16.67 357.499207
16.68 356.712463
16.69 363.675201
16.70 366.304077
16.71 360.677612
16.72 355.91568
16.73 356.886902
16.74 358.342346
16.75 348.379486
16.76 345.009521
16.77 349.332489
16.78 348.63205
16.79 357.490662
16.80 361.830444
16.81 358.924255
16.82 353.015045
16.83 346.417999
16.84 344.797211
16.85 360.670319
16.86 369.355103
16.87 356.608246
16.88 348.067657
16.89 351.042511
16.90 354.286682
16.91 351.887115
16.92 347.911194
16.93 347.031342
16.94 354.531647
16.95 363.633545
16.96 367.593842
16.97 367.232941
16.98 363.009827
16.99 367.191925
17.00 365.343262
17.01 358.409363
17.02 355.848999
17.03 358.097412
17.04 357.3573
17.05 359.074341
17.06 367.741058
17.07 372.187958
17.08 367.120605
17.09 365.033325
17.10 369.948975
17.11 370.231354
17.12 369.440338
17.13 366.189606
17.14 360.527039
17.15 353.416107
17.16 347.913177
17.17 350.120178
17.18 356.189087
17.19 364.065765
17.20 369.678436
17.21 367.147858
17.22 367.099304
17.23 369.345337
17.24 368.527069
17.25 361.417206
17.26 355.551819
17.27 358.130005
17.28 360.507904
17.29 362.924408
17.30 364.452148
17.31 362.843689
17.32 364.33374
17.33 365.233459
17.34 361.899933
17.35 360.746857
17.36 364.268677
17.37 366.287109
17.38 362.95993
17.39 366.182861
17.40 368.547058
17.41 365.876282
17.42 360.162781
17.43 362.731018
17.44 367.872498
17.45 368.122589
17.46 368.868866
17.47 369.465576
17.48 368.049316
17.49 363.957245
17.50 361.634766
17.51 367.989349
17.52 371.869598
17.53 368.359161
17.54 370.63916
17.55 372.444702
17.56 368.726105
17.57 367.732391
17.58 365.785278
17.59 362.387817
17.60 367.857422
17.61 368.339813
17.62 375.456604
17.63 381.59903
17.64 376.811707
17.65 373.786591
17.66 372.689911
17.67 374.768402
17.68 384.450684
17.69 378.358063
17.70 371.203583
17.71 370.988342
17.72 370.904083
17.73 375.834839
17.74 376.389252
17.75 377.885071
17.76 386.242249
17.77 385.590942
17.78 379.770233
17.79 381.247192
17.80 381.062256
17.81 377.957062
17.82 378.789032
17.83 377.953979
17.84 378.022003
17.85 379.087555
17.86 382.121704
17.87 385.365082
17.88 384.073975
17.89 382.314636
17.90 385.338043
17.91 392.1091
17.92 389.018433
17.93 395.085083
17.94 406.498077
17.95 399.448486
17.96 389.982452
17.97 387.968414
17.98 380.009857
17.99 376.075714
18.00 380.563934
18.01 389.107422
18.02 395.584259
18.03 395.535004
18.04 391.638458
18.05 392.134979
18.06 389.586456
18.07 384.836884
18.08 386.029938
18.09 387.925476
18.10 393.959351
18.11 397.147095
18.12 397.740173
18.13 397.242432
18.14 391.7854
18.15 390.621704
18.16 390.750732
18.17 393.863373
18.18 399.161835
18.19 402.310547
18.20 404.383331
18.21 403.749756
18.22 403.418823
18.23 405.305542
18.24 396.258331
18.25 399.535126
18.26 412.679657
18.27 416.311615
18.28 417.007385
18.29 410.713745
18.30 403.464905
18.31 408.174957
18.32 410.536224
18.33 408.317474
18.34 408.460693
18.35 410.589355
18.36 403.955872
18.37 399.296448
18.38 400.385437
18.39 404.750763
18.40 403.394897
18.41 407.445374
18.42 415.50473
18.43 418.605408
18.44 416.029419
18.45 415.368286
18.46 407.843872
18.47 406.336517
18.48 408.718384
18.49 413.734802
18.50 420.956543
18.51 426.47171
18.52 431.858093
18.53 424.059326
18.54 415.377777
18.55 420.296143
18.56 410.33847
18.57 411.228638
18.58 428.722412
18.59 431.110413
18.60 421.253906
18.61 415.981476
18.62 417.246277
18.63 417.297882
18.64 419.788147
18.65 425.933624
18.66 427.048553
18.67 421.854736
18.68 415.250092
18.69 416.947052
18.70 420.486328
18.71 420.529663
18.72 432.193451
18.73 435.587402
18.74 433.661133
18.75 438.535095
18.76 434.92453
18.77 414.228821
18.78 408.227997
18.79 414.132111
18.80 419.523376
18.81 421.334015
18.82 415.79422
18.83 415.183441
18.84 418.61911
18.85 427.427246
18.86 431.596802
18.87 434.038818
18.88 434.575806
18.89 432.993958
18.90 434.921173
18.91 436.36496
18.92 442.123383
18.93 443.828064
18.94 438.255676
18.95 434.801483
18.96 434.191132
18.97 430.385925
18.98 426.155731
18.99 426.395569
19.00 431.016144
19.01 437.813629
19.02 439.257599
19.03 436.060974
19.04 430.667084
19.05 429.071259
19.06 429.77359
19.07 428.558929
19.08 422.919067
19.09 422.963837
19.10 426.563934
19.11 428.97641
19.12 429.02066
19.13 429.160797
19.14 426.767487
19.15 426.107727
19.16 432.718903
19.17 435.856323
19.18 438.250793
19.19 441.323242
19.20 444.479828
19.21 444.198975
19.22 444.784119
19.23 438.057709
19.24 435.24176
19.25 439.957947
19.26 444.230072
19.27 455.010895
19.28 460.740723
19.29 446.348694
19.30 434.654053
19.31 436.317627
19.32 445.514893
19.33 451.795593
19.34 450.342285
19.35 446.670074
19.36 440.553558
19.37 439.50354
19.38 441.274475
19.39 442.851898
19.40 441.066681
19.41 439.530029
19.42 444.297729
19.43 454.096558
19.44 464.752502
19.45 464.169312
19.46 455.386871
19.47 449.4646
19.48 457.01181
19.49 467.679077
19.50 469.364136
19.51 466.996887
19.52 464.726807
19.53 457.391388
19.54 457.038879
19.55 455.887543
19.56 449.338318
19.57 444.745789
19.58 450.436371
19.59 455.005066
19.60 464.324524
19.61 473.518921
19.62 469.360291
19.63 467.04361
19.64 467.545532
19.65 459.253418
19.66 459.131866
19.67 460.630035
19.68 455.565826
19.69 457.55365
19.70 455.845215
19.71 451.821106
19.72 460.47226
19.73 468.850037
19.74 468.227722
19.75 468.953888
19.76 469.562622
19.77 472.093414
19.78 473.063873
19.79 474.663177
19.80 463.985291
19.81 460.283691
19.82 468.208313
19.83 472.259949
19.84 475.342041
19.85 474.575409
19.86 470.882904
19.87 470.489197
19.88 472.76825
19.89 476.656097
19.90 480.654755
19.91 470.019226
19.92 462.531891
19.93 463.924042
19.94 466.230316
19.95 466.963135
19.96 475.411285
19.97 476.244934
19.98 479.342651
19.99 489.410156
20.00 486.519287
20.01 488.490509
20.02 492.351379
20.03 492.53714
20.04 484.092041
20.05 480.052246
20.06 481.068085
20.07 484.053345
20.08 492.846436
20.09 491.602112
20.10 485.27951
20.11 485.078217
20.12 494.746674
20.13 503.963165
20.14 507.703247
20.15 507.323181
20.16 499.102509
20.17 492.477692
20.18 494.073853
20.19 502.085938
20.20 504.378235
20.21 500.003723
20.22 501.702606
20.23 500.826141
20.24 501.359619
20.25 512.333313
20.26 514.70282
20.27 511.641266
20.28 512.695618
20.29 512.953796
20.30 513.600037
20.31 517.446594
20.32 514.417542
20.33 505.728973
20.34 500.088989
20.35 503.886566
20.36 512.089111
20.37 515.182983
20.38 515.373657
20.39 509.68924
20.40 511.014343
20.41 520.240051
20.42 528.55957
20.43 526.79303
20.44 518.619202
20.45 514.50592
20.46 515.03833
20.47 511.769348
20.48 514.125305
20.49 519.230591
20.50 522.272949
20.51 526.810974
20.52 520.529541
20.53 507.588287
20.54 513.40979
20.55 528.767944
20.56 527.38501
20.57 528.166443
20.58 514.553528
20.59 509.387665
20.60 520.625122
20.61 519.953735
20.62 519.003357
20.63 516.42157
20.64 514.453186
20.65 518.456299
20.66 517.629639
20.67 520.820984
20.68 532.25647
20.69 535.989258
20.70 530.703674
20.71 530.90686
20.72 529.435364
20.73 535.832275
20.74 540.476074
20.75 533.021545
20.76 524.350464
20.77 524.443665
20.78 526.91803
20.79 527.536621
20.80 519.273987
20.81 512.436279
20.82 509.145874
20.83 516.692871
20.84 527.216553
20.85 530.553772
20.86 533.06134
20.87 539.894653
20.88 543.455566
20.89 542.391846
20.90 541.887573
20.91 537.094421
20.92 531.324646
20.93 536.452698
20.94 536.230286
20.95 531.949341
20.96 523.437622
20.97 518.161133
20.98 529.437195
20.99 536.567017
21.00 535.794434
21.01 542.19574
21.02 546.590027
21.03 544.049438
21.04 542.576538
21.05 539.549377
21.06 537.887939
21.07 531.198608
21.08 533.330078
21.09 539.929932
21.10 542.542664
21.11 545.162781
21.12 544.476807
21.13 546.751282
21.14 552.596863
21.15 557.611267
21.16 555.363586
21.17 547.959351
21.18 545.16333
21.19 547.899658
21.20 537.358765
21.21 531.302307
21.22 529.165894
21.23 535.940796
21.24 549.818848
21.25 543.573853
21.26 536.457886
21.27 539.451843
21.28 533.723145
21.29 530.510498
21.30 539.365051
21.31 544.963867
21.32 546.593445
21.33 546.834412
21.34 551.108521
21.35 555.152161
21.36 556.039124
21.37 555.059143
21.38 543.097534
21.39 542.464417
21.40 545.526733
21.41 546.269836
21.42 550.411316
21.43 546.471252
21.44 547.861145
21.45 554.379578
21.46 552.74292
21.47 553.631104
21.48 551.743774
21.49 546.807373
21.50 545.158936
21.51 549.220154
21.52 556.332642
21.53 560.828552
21.54 562.393921
21.55 566.235168
21.56 569.888306
21.57 570.723206
21.58 572.879761
21.59 569.740173
21.60 561.334473
21.61 556.120605
21.62 550.212341
21.63 554.970947
21.64 560.66748
21.65 564.634216
21.66 571.705811
21.67 575.184509
21.68 568.913818
21.69 566.832275
21.70 571.646484
21.71 574.228333
21.72 570.210999
21.73 565.615479
21.74 559.620483
21.75 550.850769
21.76 551.93927
21.77 562.725403
21.78 568.900452
21.79 574.627136
21.80 577.075684
21.81 580.605713
21.82 576.993591
21.83 579.126648
21.84 584.100586
21.85 578.39447
21.86 570.321594
21.87 573.806885
21.88 573.732544
21.89 568.80603
21.90 569.098877
21.91 559.856201
21.92 558.152161
21.93 575.920715
21.94 589.091125
21.95 589.90332
21.96 592.92395
21.97 587.398376
21.98 575.10321
21.99 573.85376
22.00 583.628235
22.01 589.701111
22.02 590.98877
22.03 596.112976
22.04 594.399109
22.05 584.736023
22.06 578.735596
22.07 580.269287
22.08 585.252502
22.09 584.688477
22.10 572.320435
22.11 572.84668
22.12 584.674927
22.13 584.961914
22.14 578.30365
22.15 580.535706
22.16 581.723999
22.17 581.858398
22.18 573.704468
22.19 573.24585
22.20 576.122437
22.21 583.239929
22.22 594.915833
22.23 599.888428
22.24 599.917725
22.25 601.589661
22.26 590.763611
22.27 584.673462
22.28 593.266418
22.29 595.777466
22.30 593.350647
22.31 589.920349
22.32 590.069214
22.33 594.661926
22.34 595.918152
22.35 592.591614
22.36 590.069336
22.37 588.208923
22.38 584.208801
22.39 585.289001
22.40 589.521606
22.41 580.591064
22.42 577.982056
22.43 581.949951
22.44 578.980225
22.45 578.200073
22.46 586.954346
22.47 593.214478
22.48 595.964478
22.49 593.235596
22.50 592.501831
22.51 598.224182
22.52 599.484619
22.53 596.481384
22.54 587.801941
22.55 591.900879
22.56 599.383301
22.57 604.569824
22.58 606.87915
22.59 608.049988
22.60 605.433228
22.61 596.431946
22.62 592.385559
22.63 597.305725
22.64 603.781616
22.65 597.737671
22.66 592.740967
22.67 588.364319
22.68 584.894226
22.69 589.389954
22.70 590.98999
22.71 590.51123
22.72 594.101685
22.73 595.667847
22.74 596.819458
22.75 593.90918
22.76 595.194275
22.77 604.218872
22.78 603.806641
22.79 599.612122
22.80 605.130066
22.81 615.345642
22.82 631.518616
22.83 637.100281
22.84 633.911072
22.85 623.391052
22.86 606.693848
22.87 595.048218
22.88 587.634583
22.89 594.221252
22.90 607.700867
22.91 616.114319
22.92 618.331055
22.93 612.152771
22.94 606.400391
22.95 607.56012
22.96 605.143555
22.97 606.800659
22.98 607.008667
22.99 607.375183
23.00 610.923157
23.01 611.722961
23.02 606.566528
23.03 604.871155
23.04 600.36438
23.05 598.692017
23.06 606.903076
23.07 609.556458
23.08 617.265076
23.09 617.88562
23.10 611.440125
23.11 609.922607
23.12 610.865356
23.13 607.263245
23.14 602.31781
23.15 608.228943
23.16 606.310059
23.17 609.087708
23.18 612.557983
23.19 608.726624
23.20 608.610596
23.21 607.89093
23.22 608.226929
23.23 615.574097
23.24 625.929504
23.25 619.234497
23.26 613.402222
23.27 616.603271
23.28 624.153503
23.29 626.304077
23.30 629.134338
23.31 630.348083
23.32 626.02417
23.33 623.825378
23.34 626.761963
23.35 633.306519
23.36 635.598267
23.37 632.892273
23.38 626.06311
23.39 627.130676
23.40 631.219177
23.41 626.126831
23.42 620.594971
23.43 621.513489
23.44 619.372681
23.45 623.568909
23.46 629.603333
23.47 624.087097
23.48 614.93634
23.49 612.53894
23.50 614.242432
23.51 620.369629
23.52 626.41925
23.53 626.878296
23.54 618.082153
23.55 611.35083
23.56 610.799072
23.57 619.770081
23.58 621.802307
23.59 617.418518
23.60 616.619446
23.61 619.681152
23.62 614.701599
23.63 609.253967
23.64 608.41217
23.65 612.24646
23.66 625.975952
23.67 633.959778
23.68 629.320679
23.69 629.838135
23.70 623.788818
23.71 614.859009
23.72 615.373962
23.73 618.010742
23.74 619.527588
23.75 628.649048
23.76 634.157166
23.77 630.043518
23.78 630.306641
23.79 640.618469
23.80 646.629883
23.81 650.20697
23.82 645.181763
23.83 637.476685
23.84 624.842163
23.85 617.671875
23.86 619.351868
23.87 624.270752
23.88 621.152588
23.89 625.827148
23.90 635.362366
23.91 636.636597
23.92 639.612549
23.93 645.574768
23.94 639.039307
23.95 626.813293
23.96 628.362366
23.97 629.183289
23.98 628.247192
23.99 627.959961
24.00 625.543884
24.01 636.268616
24.02 642.766968
24.03 642.352478
24.04 644.586975
24.05 640.75177
24.06 639.754395
24.07 643.10437
24.08 639.879333
24.09 632.842957
24.10 634.658203
24.11 633.303894
24.12 637.541565
24.13 640.664978
24.14 638.141235
24.15 644.368469
24.16 648.558411
24.17 648.397766
24.18 644.833374
24.19 644.482544
24.20 645.166443
24.21 642.094177
24.22 639.752808
24.23 635.066956
24.24 630.59491
24.25 629.35022
24.26 632.860229
24.27 638.91449
24.28 642.304626
24.29 641.328613
24.30 640.781494
24.31 637.739624
24.32 633.475769
24.33 625.310486
24.34 630.706543
24.35 638.502747
24.36 632.660828
24.37 632.85968
24.38 637.578796
24.39 642.515869
24.40 641.977966
24.41 633.23468
24.42 625.964417
24.43 628.067383
24.44 627.727539
24.45 636.761292
24.46 637.12207
24.47 627.822815
24.48 623.271057
24.49 630.983337
24.50 637.286987
24.51 637.423706
24.52 635.703308
24.53 633.022034
24.54 634.687805
24.55 637.892822
24.56 641.939209
24.57 644.283569
24.58 644.331299
24.59 647.601196
24.60 649.55365
24.61 647.42804
24.62 642.942261
24.63 644.026367
24.64 647.569397
24.65 643.071045
24.66 644.267456
24.67 648.202698
24.68 646.626282
24.69 643.353394
24.70 639.046936
24.71 634.358154
24.72 634.814575
24.73 637.017944
24.74 636.540405
24.75 645.647583
24.76 647.525269
24.77 635.959778
24.78 634.315125
24.79 639.107361
24.80 644.934692
24.81 644.735229
24.82 643.105591
24.83 639.359985
24.84 634.379028
24.85 645.294312
24.86 646.963562
24.87 643.291748
24.88 646.845154
24.89 647.067444
24.90 641.880737
24.91 637.702209
24.92 643.520508
24.93 649.272949
24.94 655.872253
24.95 665.155151
24.96 660.911682
24.97 655.241333
24.98 653.725708
24.99 650.079529
25.00 645.033264
25.01 648.312317
25.02 656.499695
25.03 652.884888
25.04 641.620605
25.05 646.599915
25.06 651.929871
25.07 648.631714
25.08 652.085144
25.09 655.280273
25.10 651.439209
25.11 648.556213
25.12 656.374268
25.13 654.335083
25.14 653.711243
25.15 657.429138
25.16 651.525024
25.17 646.893127
25.18 650.894104
25.19 653.425964
25.20 652.990662
25.21 647.670776
25.22 643.419312
25.23 641.848877
25.24 646.758606
25.25 647.569153
25.26 645.432373
25.27 640.333801
25.28 642.890503
25.29 649.277405
25.30 658.535583
25.31 655.599609
25.32 650.994385
25.33 656.110657
25.34 653.903198
25.35 652.909851
25.36 653.059753
25.37 649.51001
25.38 648.367493
25.39 647.247131
25.40 645.381714
25.41 644.431274
25.42 640.962097
25.43 636.712036
25.44 637.20813
25.45 638.42041
25.46 635.492371
25.47 636.749573
25.48 637.895325
25.49 641.235596
25.50 638.635132
25.51 633.148743
25.52 635.848022
25.53 639.532104
25.54 637.311707
25.55 634.444763
25.56 634.985718
25.57 640.105225
25.58 642.772888
25.59 646.590881
25.60 643.758789
25.61 637.679443
25.62 634.224243
25.63 636.914246
25.64 643.306519
25.65 640.369324
25.66 637.403198
25.67 641.628174
25.68 639.123779
25.69 635.576599
25.70 636.792969
25.71 639.98175
25.72 642.876892
25.73 639.784485
25.74 637.504272
25.75 643.311279
25.76 639.771057
25.77 640.387085
25.78 641.241394
25.79 639.470276
25.80 635.686768
25.81 629.273987
25.82 626.073425
25.83 617.196655
25.84 617.082092
25.85 628.065918
25.86 636.997864
25.87 634.259094
25.88 635.221924
25.89 634.18811
25.90 633.203735
25.91 641.434143
25.92 640.803772
25.93 624.870483
25.94 620.578369
25.95 626.480469
25.96 624.597656
25.97 634.570007
25.98 646.933655
25.99 639.997253
26.00 630.152954
26.01 623.927368
26.02 625.653442
26.03 637.839905
26.04 638.252808
26.05 630.770142
26.06 630.628479
26.07 639.437744
26.08 638.474121
26.09 635.877991
26.10 643.854797
26.11 641.762146
26.12 640.134216
26.13 641.937744
26.14 635.6875
26.15 633.337952
26.16 638.801758
26.17 634.639099
26.18 636.147156
26.19 643.051392
26.20 647.06543
26.21 647.871643
26.22 642.371826
26.23 636.602783
26.24 632.048523
26.25 627.909058
26.26 629.881714
26.27 633.727112
26.28 633.062744
26.29 635.78772
26.30 643.148132
26.31 636.628418
26.32 631.951355
26.33 635.508484
26.34 636.557678
26.35 637.094177
26.36 636.777527
26.37 639.706238
26.38 635.372253
26.39 634.728271
26.40 633.736023
26.41 634.996216
26.42 642.822083
26.43 640.299622
26.44 632.388428
26.45 635.91095
26.46 646.461792
26.47 648.552124
26.48 650.385132
26.49 648.221558
26.50 641.721191
26.51 641.761475
26.52 645.889099
26.53 639.923157
26.54 638.911865
26.55 641.456299
26.56 638.837097
26.57 631.377625
26.58 622.142639
26.59 621.888794
26.60 622.872009
26.61 627.870483
26.62 635.385071
26.63 637.4552
26.64 635.295654
26.65 633.658752
26.66 627.126831
26.67 627.002441
26.68 633.746216
26.69 637.096191
26.70 634.2724
26.71 634.354858
26.72 629.887878
26.73 629.566589
26.74 631.413269
26.75 633.762512
26.76 635.288574
26.77 634.593933
26.78 639.434082
26.79 636.790344
26.80 636.862488
26.81 638.556458
26.82 637.187317
26.83 627.870972
26.84 626.671204
26.85 622.293884
26.86 619.92926
26.87 621.437073
26.88 625.440308
26.89 629.659546
26.90 631.348145
26.91 629.672729
26.92 625.990173
26.93 628.668884
26.94 628.739075
26.95 629.140198
26.96 636.40625
26.97 641.471375
26.98 639.877136
26.99 632.937561
27.00 632.850098
27.01 631.537781
27.02 627.740479
27.03 627.808472
27.04 631.483459
27.05 633.944702
27.06 637.309082
27.07 632.741821
27.08 629.555481
27.09 629.761719
27.10 629.441223
27.11 625.750549
27.12 624.79364
27.13 630.74408
27.14 630.267822
27.15 626.292358
27.16 623.271484
27.17 616.429932
27.18 611.395996
27.19 619.122864
27.20 621.337891
27.21 625.835022
27.22 631.282715
27.23 629.074219
27.24 618.253906
27.25 617.86322
27.26 614.687561
27.27 614.074036
27.28 621.915588
27.29 623.677307
27.30 630.818115
27.31 629.733154
27.32 621.823608
27.33 625.258423
27.34 628.637085
27.35 626.071167
27.36 617.279175
27.37 612.402466
27.38 621.019043
27.39 627.735962
27.40 624.042725
27.41 620.952209
27.42 624.068848
27.43 633.150024
27.44 640.871155
27.45 635.586121
27.46 630.096924
27.47 630.322327
27.48 635.714111
27.49 642.563293
27.50 637.436829
27.51 635.890076
27.52 639.348389
27.53 634.086304
27.54 624.760864
27.55 621.512085
27.56 625.208069
27.57 635.190918
27.58 635.209167
27.59 628.446167
27.60 627.040283
27.61 625.947815
27.62 624.025024
27.63 627.543152
27.64 624.077759
27.65 620.025452
27.66 613.482666
27.67 614.539124
27.68 626.367737
27.69 627.984741
27.70 628.994812
27.71 636.187317
27.72 640.193665
27.73 635.733826
27.74 633.881348
27.75 631.996643
27.76 625.468079
27.77 628.893127
27.78 632.395081
27.79 633.090027
27.80 633.105225
27.81 635.417358
27.82 626.620483
27.83 619.99408
27.84 619.744873
27.85 615.002808
27.86 618.209534
27.87 629.264343
27.88 633.406372
27.89 630.99762
27.90 625.519836
27.91 627.418335
27.92 628.726318
27.93 624.650696
27.94 617.711426
27.95 620.563599
27.96 622.005432
27.97 622.894775
27.98 620.236267
27.99 617.910095
28.00 622.853088
28.01 627.509766
28.02 625.541504
28.03 620.158508
28.04 620.353943
28.05 624.61731
28.06 627.089355
28.07 627.322815
28.08 622.929993
28.09 624.725281
28.10 627.564392
28.11 628.134277
28.12 628.671692
28.13 623.114197
28.14 617.332764
28.15 624.649658
28.16 629.724854
28.17 625.928711
28.18 622.188171
28.19 617.02301
28.20 612.953125
28.21 622.124268
28.22 635.312927
28.23 630.966736
28.24 629.980042
28.25 637.168335
28.26 641.808228
28.27 640.411865
28.28 635.797974
28.29 636.416199
28.30 643.626099
28.31 642.475769
28.32 643.128784
28.33 635.59137
28.34 625.623474
28.35 631.153931
28.36 633.569092
28.37 631.84314
28.38 636.005432
28.39 637.552368
28.40 631.042664
28.41 630.362061
28.42 637.189392
28.43 643.689148
28.44 652.905334
28.45 655.762207
28.46 656.91217
28.47 656.930176
28.48 652.219116
28.49 650.993713
28.50 649.487427
28.51 651.843811
28.52 658.290161
28.53 656.070496
28.54 658.999878
28.55 667.524963
28.56 670.840149
28.57 665.195313
28.58 661.577332
28.59 662.493713
28.60 668.909424
28.61 669.734863
28.62 672.617615
28.63 677.882385
28.64 678.760803
28.65 682.936157
28.66 693.289612
28.67 698.55365
28.68 698.235596
28.69 710.792419
28.70 713.543091
28.71 713.24762
28.72 714.23822
28.73 720.233276
28.74 718.158936
28.75 713.438721
28.76 715.22644
28.77 721.169983
28.78 729.089722
28.79 730.724731
28.80 737.29718
28.81 749.811829
28.82 761.864746
28.83 771.331177
28.84 786.226257
28.85 794.761719
28.86 795.932251
28.87 810.097534
28.88 822.721924
28.89 839.362366
28.90 854.105164
28.91 868.789246
28.92 875.939026
28.93 892.556519
28.94 913.616943
28.95 920.501465
28.96 930.694885
28.97 939.034058
28.98 953.32074
28.99 975.660156
29.00 994.947754
29.01 1017.945068
29.02 1037.79834
29.03 1047.748779
29.04 1056.360474
29.05 1072.058472
29.06 1079.691284
29.07 1098.453613
29.08 1117.251343
29.09 1126.139038
29.10 1131.572876
29.11 1135.991577
29.12 1141.266235
29.13 1150.072266
29.14 1159.927368
29.15 1155.988525
29.16 1163.887695
29.17 1169.839355
29.18 1160.537109
29.19 1164.096802
29.20 1158.386841
29.21 1139.602417
29.22 1126.35144
29.23 1118.497192
29.24 1099.47937
29.25 1084.91333
29.26 1068.64563
29.27 1043.524292
29.28 1028.602051
29.29 1015.747009
29.30 1004.630249
29.31 990.539429
29.32 968.875854
29.33 939.242432
29.34 913.228271
29.35 897.146851
29.36 879.66333
29.37 866.678955
29.38 853.948242
29.39 842.263428
29.40 824.941223
29.41 806.84552
29.42 798.363892
29.43 787.996704
29.44 777.495117
29.45 764.676575
29.46 754.90741
29.47 741.90448
29.48 731.835876
29.49 719.741577
29.50 707.023621
29.51 700.585999
29.52 700.367249
29.53 696.932373
29.54 688.873352
29.55 683.699646
29.56 679.044678
29.57 672.218811
29.58 661.923462
29.59 657.392822
29.60 659.535828
29.61 661.064636
29.62 654.865845
29.63 646.630554
29.64 640.162903
29.65 638.991943
29.66 636.530579
29.67 638.239258
29.68 645.293884
29.69 641.968811
29.70 632.843689
29.71 632.585083
29.72 636.186523
29.73 633.635742
29.74 628.077209
29.75 631.033752
29.76 633.608582
29.77 631.12561
29.78 626.145508
29.79 622.11676
29.80 614.661621
29.81 617.183411
29.82 626.414001
29.83 623.909119
29.84 622.402771
29.85 619.678833
29.86 618.972534
29.87 620.915161
29.88 618.290833
29.89 617.296448
29.90 614.772949
29.91 607.73999
29.92 601.504639
29.93 607.371277
29.94 611.899292
29.95 611.215942
29.96 609.124146
29.97 605.123474
29.98 611.343567
29.99 609.583496
30.00 600.795959
30.01 597.901794
30.02 598.10614
30.03 595.613953
30.04 599.427979
30.05 611.448364
30.06 608.420837
30.07 607.250793
30.08 610.879028
30.09 607.686035
30.10 606.927063
30.11 599.653076
30.12 590.388977
30.13 591.027954
30.14 594.876404
30.15 597.24408
30.16 598.396362
30.17 599.579346
30.18 597.915344
30.19 599.362366
30.20 605.654968
30.21 615.902771
30.22 614.187744
30.23 603.629089
30.24 591.498779
30.25 584.514954
30.26 591.677795
30.27 589.190308
30.28 593.349243
30.29 599.164673
30.30 596.064636
30.31 593.470032
30.32 597.310608
30.33 599.748047
30.34 594.31543
30.35 595.086609
30.36 597.498535
30.37 595.355591
30.38 590.712769
30.39 587.464844
30.40 587.569031
30.41 591.950256
30.42 600.595337
30.43 601.739136
30.44 602.692139
30.45 603.675598
30.46 589.967407
30.47 582.813599
30.48 585.464844
30.49 585.877808
30.50 590.359497
30.51 597.149963
30.52 595.470947
30.53 590.330566
30.54 588.682556
30.55 592.520874
30.56 589.607483
30.57 588.82019
30.58 588.833496
30.59 593.279785
30.60 591.384705
30.61 591.477478
30.62 591.977112
30.63 586.757996
30.64 579.279053
30.65 579.443848
30.66 579.577454
30.67 579.228271
30.68 583.740356
30.69 582.940247
30.70 578.264038
30.71 578.552368
30.72 578.630432
30.73 575.06073
30.74 568.652588
30.75 567.520508
30.76 571.35321
30.77 574.510498
30.78 573.325623
30.79 574.413513
30.80 571.539368
30.81 571.133179
30.82 574.080383
30.83 566.935547
30.84 567.390564
30.85 577.277161
30.86 584.930359
30.87 584.602356
30.88 579.979858
30.89 579.884827
30.90 580.401001
30.91 578.75177
30.92 569.749817
30.93 565.162048
30.94 571.325012
30.95 572.064819
30.96 573.671875
30.97 572.661194
30.98 564.217224
30.99 563.797852
31.00 568.295288
31.01 568.194763
31.02 571.097107
31.03 576.801208
31.04 575.573792
31.05 576.765503
31.06 576.069214
31.07 573.607971
31.08 579.77655
31.09 586.513855
31.10 585.065002
31.11 580.197388
31.12 573.252319
31.13 578.690796
31.14 587.007141
31.15 583.394958
31.16 580.687744
31.17 575.03363
31.18 573.853088
31.19 577.100525
31.20 574.64624
31.21 576.87146
31.22 577.651001
31.23 576.762695
31.24 574.71637
31.25 568.958618
31.26 567.090454
31.27 567.242676
31.28 566.755798
31.29 576.240112
31.30 577.993774
31.31 566.14563
31.32 565.3302
31.33 571.989258
31.34 571.299805
31.35 566.494202
31.36 568.792236
31.37 575.344788
31.38 579.799255
31.39 576.822327
31.40 579.471069
31.41 586.314331
31.42 582.103333
31.43 578.40863
31.44 577.085815
31.45 574.902954
31.46 572.586731
31.47 572.040649
31.48 571.795227
31.49 576.773743
31.50 572.233032
31.51 562.422668
31.52 562.066528
31.53 565.673584
31.54 567.943726
31.55 565.548462
31.56 567.375854
31.57 570.429871
31.58 569.799805
31.59 561.974121
31.60 560.259949
31.61 560.964661
31.62 561.276855
31.63 564.951721
31.64 567.237793
31.65 570.928955
31.66 571.729675
31.67 567.933105
31.68 562.89978
31.69 560.861755
31.70 562.017029
31.71 561.60376
31.72 559.063721
31.73 555.539429
31.74 559.60083
31.75 564.70343
31.76 566.694336
31.77 572.153687
31.78 572.047485
31.79 567.633667
31.80 562.237183
31.81 563.43219
31.82 566.927124
31.83 569.347229
31.84 569.840576
31.85 567.46051
31.86 564.743347
31.87 564.784058
31.88 564.232361
31.89 568.668274
31.90 564.772217
31.91 554.970764
31.92 559.265503
31.93 559.896545
31.94 555.00592
31.95 557.151672
31.96 563.117493
31.97 563.358032
31.98 557.681824
31.99 558.364319
32.00 562.397461
32.01 563.120178
32.02 563.618408
32.03 566.445557
32.04 569.689575
32.05 572.811218
32.06 578.432678
32.07 580.815674
32.08 578.746826
32.09 573.123779
32.10 572.33551
32.11 574.10022
32.12 570.202515
32.13 563.57843
32.14 561.150269
32.15 562.911194
32.16 572.27179
32.17 580.606689
32.18 585.332764
32.19 589.335083
32.20 594.239807
32.21 592.094482
32.22 593.848572
32.23 602.223267
32.24 607.533813
32.25 609.994629
32.26 612.358765
32.27 604.685913
32.28 600.919617
32.29 602.056458
32.30 602.918518
32.31 600.515625
32.32 598.766418
32.33 603.691284
32.34 610.683289
32.35 611.628357
32.36 613.56012
32.37 615.306091
32.38 612.828857
32.39 617.280029
32.40 622.492493
32.41 624.674927
32.42 624.373169
32.43 623.61969
32.44 625.9245
32.45 632.332886
32.46 630.800842
32.47 627.631592
32.48 637.917664
32.49 644.085754
32.50 642.748718
32.51 637.257446
32.52 634.484924
32.53 637.585205
32.54 642.920471
32.55 647.293701
32.56 651.469788
32.57 651.658997
32.58 647.41449
32.59 646.812561
32.60 651.391052
32.61 660.290222
32.62 664.485046
32.63 659.228882
32.64 659.871948
32.65 663.85144
32.66 665.214111
32.67 659.860352
32.68 659.398987
32.69 665.708801
32.70 666.931824
32.71 668.409485
32.72 674.307007
32.73 675.081177
32.74 669.093689
32.75 664.901123
32.76 659.776428
32.77 659.549744
32.78 660.233887
32.79 660.061768
32.80 654.628174
32.81 644.527405
32.82 634.936218
32.83 631.157043
32.84 625.668518
32.85 625.487793
32.86 628.85791
32.87 620.108765
32.88 607.988892
32.89 605.45343
32.90 608.302551
32.91 607.037415
32.92 616.360901
32.93 621.14093
32.94 616.631287
32.95 602.631592
32.96 587.442566
32.97 586.546143
32.98 587.81488
32.99 585.551697
33.00 584.459839
33.01 581.41571
33.02 576.232666
33.03 574.169678
33.04 574.747498
33.05 577.887329
33.06 577.034546
33.07 570.236816
33.08 564.423035
33.09 563.272217
33.10 564.142517
33.11 555.838684
33.12 545.553894
33.13 549.201294
33.14 549.907349
33.15 543.48291
33.16 541.910583
33.17 542.103149
33.18 547.62738
33.19 549.382263
33.20 538.320496
33.21 532.54541
33.22 533.291138
33.23 531.863647
33.24 524.760681
33.25 523.59491
33.26 527.021851
33.27 527.718872
33.28 527.071472
33.29 532.706482
33.30 530.776306
33.31 523.612732
33.32 525.35675
33.33 526.285583
33.34 518.58728
33.35 516.083374
33.36 513.917114
33.37 504.605743
33.38 508.504944
33.39 516.415466
33.40 516.74585
33.41 511.753235
33.42 511.961792
33.43 514.143494
33.44 517.52301
33.45 520.054932
33.46 522.392944
33.47 519.651855
33.48 519.025635
33.49 522.511292
33.50 522.534363
33.51 521.035034
33.52 519.284363
33.53 514.686096
33.54 507.536072
33.55 509.299652
33.56 509.024231
33.57 506.096802
33.58 502.03952
33.59 502.804504
33.60 503.099182
33.61 501.168091
33.62 492.613007
33.63 494.304688
33.64 502.676666
33.65 506.555603
33.66 505.648071
33.67 502.362579
33.68 500.296906
33.69 496.79248
33.70 499.511322
33.71 502.60318
33.72 500.879822
33.73 500.392426
33.74 502.790039
33.75 504.108093
33.76 507.440582
33.77 505.901001
33.78 506.500641
33.79 503.725098
33.80 492.415192
33.81 489.929565
33.82 490.790405
33.83 498.075226
33.84 501.504639
33.85 496.078705
33.86 489.698456
33.87 490.405212
33.88 489.842957
33.89 489.258179
33.90 487.489105
33.91 488.794403
33.92 489.994659
33.93 497.289795
33.94 495.727051
33.95 488.958435
33.96 483.298157
33.97 480.374573
33.98 478.157959
33.99 479.398651
34.00 479.068817
34.01 480.958038
34.02 478.869202
34.03 471.368042
34.04 475.33139
34.05 480.47168
34.06 479.696503
34.07 483.384827
34.08 487.594452
34.09 482.31662
34.10 479.513336
34.11 480.53067
34.12 480.866669
34.13 485.597839
34.14 490.013855
34.15 490.377563
34.16 491.376251
34.17 492.488373
34.18 485.153412
34.19 478.253326
34.20 482.953674
34.21 485.501251
34.22 477.748962
34.23 474.567505
34.24 470.934082
34.25 466.689423
34.26 472.68515
34.27 473.645203
34.28 471.25473
34.29 471.801147
34.30 473.080414
34.31 473.887756
34.32 477.71759
34.33 475.266174
34.34 475.824982
34.35 475.846436
34.36 476.751678
34.37 477.67218
34.38 474.205963
34.39 464.011658
34.40 458.798218
34.41 456.916138
34.42 458.091553
34.43 463.031494
34.44 464.580688
34.45 465.096619
34.46 468.19043
34.47 467.500458
34.48 464.952271
34.49 462.945435
34.50 459.263306
34.51 463.746521
34.52 472.370514
34.53 473.738556
34.54 465.148071
34.55 466.480316
34.56 469.175812
34.57 466.990723
34.58 470.244049
34.59 469.588318
34.60 464.699768
34.61 461.749939
34.62 466.588776
34.63 465.996826
34.64 465.511932
34.65 467.216614
34.66 463.99649
34.67 459.65686
34.68 460.845001
34.69 465.818176
34.70 471.401367
34.71 471.472687
34.72 461.068756
34.73 455.363617
34.74 460.560333
34.75 464.980225
34.76 463.987335
34.77 463.367157
34.78 459.960388
34.79 459.845245
34.80 461.714233
34.81 463.569397
34.82 464.542511
34.83 466.491516
34.84 466.269562
34.85 460.380981
34.86 455.77713
34.87 457.09491
34.88 458.393341
34.89 457.701141
34.90 459.822998
34.91 464.471863
34.92 461.766266
34.93 459.993378
34.94 462.256409
34.95 457.410492
34.96 452.310425
34.97 452.407837
34.98 455.059204
34.99 450.835663
35.00 454.406921
35.01 461.829834
35.02 461.512634
35.03 463.709686
35.04 461.837036
35.05 455.173706
35.06 455.353546
35.07 460.411255
35.08 460.558075
35.09 458.919891
35.10 459.308319
35.11 453.473541
35.12 447.859802
35.13 446.742615
35.14 446.583496
35.15 445.144073
35.16 445.195618
35.17 444.34494
35.18 445.377655
35.19 450.29483
35.20 453.390015
35.21 453.789368
35.22 454.871521
35.23 453.590759
35.24 453.966064
35.25 451.36087
35.26 449.577667
35.27 448.158813
35.28 443.562836
35.29 441.113098
35.30 440.113861
35.31 441.096405
35.32 437.063354
35.33 435.227783
35.34 442.479858
35.35 440.697479
35.36 441.048523
35.37 438.930573
35.38 434.985168
35.39 439.258789
35.40 440.259247
35.41 443.410797
35.42 443.833191
35.43 437.115692
35.44 431.932526
35.45 432.667297
35.46 435.795776
35.47 440.435852
35.48 447.198334
35.49 449.728333
35.50 439.591003
35.51 432.748993
35.52 430.137512
35.53 431.765808
35.54 434.649353
35.55 440.110474
35.56 447.858734
35.57 452.000702
35.58 446.888153
35.59 437.335266
35.60 431.647858
35.61 431.412292
35.62 434.560486
35.63 440.209717
35.64 447.542419
35.65 439.412262
35.66 436.089264
35.67 439.352112
35.68 441.144623
35.69 440.642273
35.70 438.914032
35.71 435.323151
35.72 433.913177
35.73 432.034851
35.74 434.80484
35.75 435.106415
35.76 432.478699
35.77 433.51593
35.78 435.670319
35.79 437.535736
35.80 434.199341
35.81 430.840729
35.82 430.462372
35.83 432.677795
35.84 434.853882
35.85 435.564789
35.86 434.984222
35.87 433.248108
35.88 432.935394
35.89 432.713257
35.90 434.854828
35.91 439.070374
35.92 438.62677
35.93 438.828644
35.94 437.553467
35.95 436.693695
35.96 439.635284
35.97 440.885834
35.98 436.29483
35.99 432.103424
36.00 429.575317
36.01 432.857697
36.02 434.715729
36.03 431.041351
36.04 428.724518
36.05 421.314331
36.06 413.482727
36.07 416.063843
36.08 419.44986
36.09 424.656525
36.10 426.485168
36.11 425.119324
36.12 431.028748
36.13 430.649231
36.14 430.305145
36.15 428.52594
36.16 427.143127
36.17 423.607452
36.18 419.767517
36.19 416.587891
36.20 417.287048
36.21 417.017517
36.22 417.207306
36.23 420.419434
36.24 422.674316
36.25 417.121063
36.26 414.731384
36.27 413.455322
36.28 405.553284
36.29 404.990112
36.30 416.153992
36.31 418.010101
36.32 410.047089
36.33 406.848633
36.34 408.036743
36.35 405.800964
36.36 405.995117
36.37 406.395905
36.38 407.792877
36.39 409.512177
36.40 405.191437
36.41 396.870697
36.42 397.293274
36.43 400.957764
36.44 405.645264
36.45 411.575653
36.46 411.577942
36.47 407.782227
36.48 408.952881
36.49 410.305023
36.50 410.080994
36.51 409.385284
36.52 410.29538
36.53 406.270966
36.54 402.975433
36.55 403.34259
36.56 405.218872
36.57 409.843262
36.58 405.060364
36.59 399.017517
36.60 395.907227
36.61 394.961548
36.62 392.607513
36.63 388.704681
36.64 386.207642
36.65 389.513611
36.66 394.68927
36.67 399.378845
36.68 403.234985
36.69 404.25705
36.70 403.165253
36.71 397.912994
36.72 399.142944
36.73 406.498047
36.74 407.105194
36.75 403.581879
36.76 398.147522
36.77 389.148804
36.78 385.04541
36.79 381.660004
36.80 383.932861
36.81 388.277924
36.82 393.814331
36.83 395.637024
36.84 390.281616
36.85 388.830719
36.86 390.146851
36.87 387.367859
36.88 387.950012
36.89 388.659637
36.90 387.554901
36.91 386.445313
36.92 384.850037
36.93 385.321014
36.94 385.5
36.95 383.290863
36.96 380.444489
36.97 383.241089
36.98 385.194122
36.99 385.312042
37.00 385.676392
37.01 383.148132
37.02 375.918732
37.03 377.908417
37.04 385.543762
37.05 391.941711
37.06 388.086578
37.07 378.325897
37.08 379.247375
37.09 381.914246
37.10 377.881805
37.11 379.073914
37.12 384.968628
37.13 384.008942
37.14 380.97821
37.15 383.370575
37.16 384.662231
37.17 383.562378
37.18 386.970856
37.19 388.580933
37.20 382.526611
37.21 379.285767
37.22 379.989899
37.23 381.13739
37.24 381.154236
37.25 381.240448
37.26 377.627258
37.27 380.168457
37.28 388.324829
37.29 386.101807
37.30 382.262604
37.31 380.808929
37.32 378.295502
37.33 376.741302
37.34 372.101715
37.35 370.853394
37.36 376.040039
37.37 381.403656
37.38 383.570374
37.39 382.894135
37.40 377.279816
37.41 373.031158
37.42 372.948242
37.43 374.123108
37.44 377.534912
37.45 379.22052
37.46 378.98526
37.47 380.850067
37.48 378.283844
37.49 374.876038
37.50 371.30899
37.51 363.659393
37.52 362.076508
37.53 370.088226
37.54 373.190216
37.55 377.846649
37.56 380.513214
37.57 376.578369
37.58 372.766693
37.59 372.749603
37.60 371.727814
37.61 367.806763
37.62 367.081207
37.63 371.18042
37.64 372.191498
37.65 369.324432
37.66 365.503845
37.67 368.829559
37.68 374.542694
37.69 370.922638
37.70 368.608215
37.71 363.065765
37.72 360.754944
37.73 369.470245
37.74 376.956573
37.75 375.777527
37.76 369.620514
37.77 364.675171
37.78 367.405487
37.79 368.312378
37.80 366.587494
37.81 367.632629
37.82 368.195892
37.83 369.778107
37.84 374.382263
37.85 368.754639
37.86 364.508362
37.87 368.118286
37.88 363.355011
37.89 358.320343
37.90 363.876648
37.91 364.90448
37.92 366.465057
37.93 366.596313
37.94 364.998474
37.95 367.924866
37.96 367.949768
37.97 361.715942
37.98 361.677948
37.99 365.331482
38.00 372.541992
38.01 375.165253
38.02 369.140411
38.03 360.941925
38.04 361.808594
38.05 367.318268
38.06 365.412659
38.07 361.035004
38.08 362.609192
38.09 369.569336
38.10 368.909149
38.11 359.555298
38.12 357.114258
38.13 356.65683
38.14 357.259613
38.15 361.19043
38.16 357.500214
38.17 358.258423
38.18 361.19516
38.19 363.654022
38.20 367.462158
38.21 366.484772
38.22 365.599792
38.23 360.309723
38.24 351.650421
38.25 352.15451
38.26 354.106964
38.27 357.918121
38.28 365.325134
38.29 364.561981
38.30 359.447968
38.31 363.235809
38.32 366.02594
38.33 363.937195
38.34 361.167328
38.35 364.673492
38.36 363.395172
38.37 357.690613
38.38 354.085327
38.39 352.45929
38.40 352.824951
38.41 355.125305
38.42 358.754425
38.43 357.547211
38.44 360.773895
38.45 362.615295
38.46 358.904388
38.47 357.076843
38.48 357.169006
38.49 358.022583
38.50 356.185089
38.51 358.559387
38.52 364.542114
38.53 360.496796
38.54 356.562592
38.55 361.855865
38.56 362.632904
38.57 359.106934
38.58 358.232513
38.59 361.862732
38.60 365.871735
38.61 365.962769
38.62 367.943634
38.63 360.139893
38.64 351.490723
38.65 356.29007
38.66 360.643097
38.67 358.011017
38.68 360.40271
38.69 363.841766
38.70 360.906311
38.71 355.151855
38.72 352.960144
38.73 351.486633
38.74 348.305267
38.75 350.950134
38.76 354.804352
38.77 355.399689
38.78 355.389374
38.79 355.789337
38.80 358.32489
38.81 357.930023
38.82 351.660248
38.83 347.233246
38.84 349.204224
38.85 349.942108
38.86 349.710449
38.87 346.553955
38.88 349.572601
38.89 350.163605
38.90 347.919067
38.91 348.207581
38.92 351.001831
38.93 349.173004
38.94 342.995667
38.95 337.43042
38.96 337.874908
38.97 342.16626
38.98 349.564362
38.99 353.608002
39.00 349.94458
39.01 345.585266
39.02 346.915192
39.03 343.569855
39.04 341.809082
39.05 344.492249
39.06 344.269562
39.07 346.956146
39.08 353.099823
39.09 350.777405
39.10 348.655548
39.11 347.370331
39.12 342.441254
39.13 343.969666
39.14 344.879669
39.15 343.079987
39.16 340.027283
39.17 339.687164
39.18 342.671631
39.19 344.689392
39.20 343.566956
39.21 341.220062
39.22 344.201965
39.23 350.229858
39.24 345.978577
39.25 337.472565
39.26 339.667816
39.27 342.974213
39.28 344.24408
39.29 347.427856
39.30 347.684845
39.31 344.993622
39.32 344.599335
39.33 346.884491
39.34 346.876953
39.35 349.664368
39.36 355.290863
39.37 351.127014
39.38 340.715912
39.39 338.610962
39.40 344.438629
39.41 348.320679
39.42 346.860748
39.43 349.472382
39.44 351.617767
39.45 345.963348
39.46 343.395142
39.47 344.223755
39.48 337.906647
39.49 339.495453
39.50 344.51532
39.51 339.4935
39.52 336.101257
39.53 339.243774
39.54 343.69809
39.55 345.990143
39.56 351.608307
39.57 357.687866
39.58 353.200439
39.59 344.444489
39.60 342.254883
39.61 342.95639
39.62 341.758514
39.63 336.649231
39.64 333.315277
39.65 340.414642
39.66 344.115387
39.67 342.598572
39.68 342.551971
39.69 343.378845
39.70 345.629181
39.71 344.046448
39.72 336.784637
39.73 335.379883
39.74 339.857666
39.75 343.7742
39.76 344.997894
39.77 342.613373
39.78 336.279999
39.79 331.688141
39.80 337.182892
39.81 338.683594
39.82 337.726074
39.83 338.07666
39.84 341.197998
39.85 344.410675
39.86 343.565247
39.87 346.367218
39.88 348.739014
39.89 349.70459
39.90 350.640533
39.91 346.242035
39.92 343.505676
39.93 342.806641
39.94 348.213043
39.95 348.681671
39.96 345.609741
39.97 342.937561
39.98 339.301514
39.99 338.221283
40.00 337.750671
40.01 339.473022
40.02 340.732574
40.03 345.255127
40.04 348.59317
40.05 345.17923
40.06 342.014832
40.07 339.638763
40.08 340.650085
40.09 341.242279
40.10 344.204834
40.11 346.91748
40.12 340.75647
40.13 336.21286
40.14 340.718323
40.15 342.321899
40.16 344.776581
40.17 346.582672
40.18 347.571655
40.19 350.498535
40.20 349.068451
40.21 347.76889
40.22 348.395172
40.23 348.987518
40.24 345.766052
40.25 345.85379
40.26 346.105804
40.27 348.55249
40.28 350.921143
40.29 346.81842
40.30 342.223053
40.31 342.928406
40.32 348.682312
40.33 353.864868
40.34 354.280518
40.35 352.613129
40.36 350.015442
40.37 342.070251
40.38 343.008942
40.39 344.559814
40.40 341.14624
40.41 338.507599
40.42 332.557129
40.43 331.514862
40.44 335.045441
40.45 339.009705
40.46 339.253143
40.47 343.957245
40.48 346.356659
40.49 345.619904
40.50 351.411285
40.51 344.593781
40.52 338.584534
40.53 339.659882
40.54 339.991821
40.55 343.720215
40.56 346.636322
40.57 346.072479
40.58 348.852783
40.59 346.577972
40.60 344.249146
40.61 338.985901
40.62 333.299591
40.63 339.488647
40.64 340.08136
40.65 337.976654
40.66 339.169586
40.67 340.281189
40.68 342.273712
40.69 343.472412
40.70 344.621124
40.71 343.985535
40.72 343.8078
40.73 339.861298
40.74 334.85968
40.75 335.393341
40.76 337.057709
40.77 337.140991
40.78 338.556671
40.79 342.744751
40.80 345.522125
40.81 346.124695
40.82 346.454834
40.83 345.06662
40.84 338.98877
40.85 333.175659
40.86 332.842987
40.87 337.494354
40.88 348.086792
40.89 348.981018
40.90 344.673798
40.91 343.2771
40.92 334.860474
40.93 336.968842
40.94 343.769043
40.95 339.853821
40.96 339.520386
40.97 336.414612
40.98 337.347198
40.99 341.029877
41.00 342.486053
41.01 344.292847
41.02 341.646271
41.03 339.060394
41.04 343.91037
41.05 348.919006
41.06 347.990936
41.07 343.934387
41.08 338.362854
41.09 340.77243
41.10 346.769562
