!@!!GADDS PLOTSO FILE: Chi integration type
!@!!Title/SampleName: ML_MAPbX3
!@!!User: NREL
!@!!Site: NREL SERF C211; SN 2510
!@!!Frame: 081022_MLProject_000_002.gfrm
!@!!Wavelengths    1.54184   1.54056   1.54439
!@!!Frame angles: 2Theta: 28.000 Omega: 5.000 Phi: 0.000 Chi: 90.000
!@!!Integration range: 2Theta: 10.000 to 41.100  Gamma: -120.400 to -60.400
!@!!Integration method: bin normalized
!@!N
!@!SS
!@!M
!@!L 0.0 0.0 0.0 0.0
!@!XDegrees
!@!YCounts
10.00 116.859962
10.01 121.50042
10.02 115.057365
10.03 102.478104
10.04 100.922195
10.05 105.827354
10.06 100.511597
10.07 97.861015
10.08 105.207726
10.09 108.108932
10.10 112.626457
10.11 113.681892
10.12 113.995834
10.13 113.570114
10.14 105.393669
10.15 105.602257
10.16 108.719818
10.17 105.283745
10.18 112.501625
10.19 118.739594
10.20 115.890602
10.21 110.322029
10.22 106.530952
10.23 106.925133
10.24 110.978973
10.25 113.853394
10.26 112.949539
10.27 115.691086
10.28 111.057961
10.29 101.854897
10.30 108.452812
10.31 118.889214
10.32 117.31456
10.33 116.340874
10.34 118.673332
10.35 112.627808
10.36 109.204277
10.37 106.170059
10.38 102.863953
10.39 99.311508
10.40 99.215813
10.41 103.854156
10.42 107.659004
10.43 109.498016
10.44 111.864632
10.45 114.984772
10.46 112.749649
10.47 112.439873
10.48 115.753899
10.49 122.599808
10.50 124.695824
10.51 120.562759
10.52 115.668823
10.53 116.895592
10.54 112.918816
10.55 109.320572
10.56 112.287613
10.57 111.906288
10.58 108.254555
10.59 112.376648
10.60 118.626259
10.61 122.737289
10.62 122.780136
10.63 123.391724
10.64 122.182884
10.65 112.712395
10.66 108.335098
10.67 113.543404
10.68 113.726875
10.69 112.242363
10.70 113.374207
10.71 113.845474
10.72 118.444519
10.73 111.675499
10.74 107.883209
10.75 113.618858
10.76 113.321671
10.77 118.895134
10.78 124.373352
10.79 122.225113
10.80 121.302231
10.81 123.296669
10.82 120.126083
10.83 121.317078
10.84 120.949837
10.85 117.057831
10.86 119.641052
10.87 119.742592
10.88 120.856644
10.89 123.355148
10.90 117.858521
10.91 115.475731
10.92 120.701378
10.93 121.572891
10.94 122.042534
10.95 121.184273
10.96 115.760208
10.97 115.043762
10.98 119.141533
10.99 117.857117
11.00 116.739265
11.01 119.41552
11.02 120.355217
11.03 118.413673
11.04 115.130699
11.05 115.545692
11.06 113.983383
11.07 122.004776
11.08 128.650482
11.09 126.383194
11.10 126.171722
11.11 121.801353
11.12 117.312347
11.13 120.355888
11.14 129.669388
11.15 128.355103
11.16 123.678917
11.17 128.084137
11.18 123.589325
11.19 118.960197
11.20 120.53788
11.21 123.05455
11.22 117.456566
11.23 117.328842
11.24 121.347122
11.25 120.207268
11.26 121.00528
11.27 118.618301
11.28 123.073647
11.29 126.622162
11.30 116.087418
11.31 112.594887
11.32 118.211342
11.33 120.375603
11.34 121.439331
11.35 126.689453
11.36 133.638382
11.37 134.675339
11.38 130.411896
11.39 127.351372
11.40 128.872787
11.41 128.343445
11.42 121.302841
11.43 121.839691
11.44 125.103844
11.45 127.14489
11.46 130.554245
11.47 128.211563
11.48 127.035057
11.49 126.867783
11.50 126.734383
11.51 130.787079
11.52 132.279633
11.53 131.652756
11.54 128.803925
11.55 130.295425
11.56 133.119415
11.57 128.612793
11.58 128.169632
11.59 125.895317
11.60 123.295647
11.61 122.656738
11.62 126.839821
11.63 132.160706
11.64 133.510086
11.65 131.891647
11.66 128.012283
11.67 128.994568
11.68 128.454254
11.69 124.214401
11.70 121.471291
11.71 124.313774
11.72 130.79538
11.73 128.49852
11.74 126.122604
11.75 125.01223
11.76 127.291199
11.77 130.123947
11.78 135.952499
11.79 136.073837
11.80 133.982651
11.81 133.234695
11.82 123.868668
11.83 127.61734
11.84 130.495438
11.85 134.068832
11.86 137.737473
11.87 130.447815
11.88 130.119461
11.89 134.806519
11.90 139.912613
11.91 146.733276
11.92 142.083435
11.93 132.068054
11.94 132.438492
11.95 132.320969
11.96 131.225067
11.97 131.191345
11.98 133.859955
11.99 137.658691
12.00 131.987701
12.01 124.68721
12.02 126.843323
12.03 130.934341
12.04 130.245331
12.05 131.381012
12.06 132.260498
12.07 130.766479
12.08 140.241135
12.09 143.448227
12.10 135.18251
12.11 132.993958
12.12 135.424469
12.13 134.829239
12.14 131.321075
12.15 133.788635
12.16 134.482269
12.17 140.62326
12.18 140.474976
12.19 139.10672
12.20 142.327545
12.21 139.901398
12.22 142.940109
12.23 148.201126
12.24 144.650055
12.25 139.007492
12.26 144.47316
12.27 146.657623
12.28 142.066574
12.29 143.944855
12.30 148.269455
12.31 155.656311
12.32 154.958954
12.33 150.454086
12.34 153.852295
12.35 158.616302
12.36 154.662567
12.37 146.762665
12.38 150.25798
12.39 154.515396
12.40 151.597137
12.41 152.713974
12.42 156.648148
12.43 151.072037
12.44 146.825256
12.45 149.179031
12.46 152.926758
12.47 155.703613
12.48 148.904205
12.49 144.94043
12.50 151.298843
12.51 155.627029
12.52 155.309753
12.53 158.792496
12.54 157.466949
12.55 153.553055
12.56 154.656601
12.57 154.474655
12.58 156.8461
12.59 158.818817
12.60 156.527832
12.61 153.859451
12.62 157.009003
12.63 162.196747
12.64 161.591949
12.65 161.534363
12.66 163.860703
12.67 159.357391
12.68 151.915741
12.69 153.393555
12.70 157.860809
12.71 160.605972
12.72 160.439011
12.73 154.076035
12.74 148.422211
12.75 154.392685
12.76 160.725693
12.77 159.896744
12.78 157.62854
12.79 157.760757
12.80 162.156433
12.81 160.247375
12.82 156.067429
12.83 162.616547
12.84 162.400238
12.85 157.714401
12.86 154.544769
12.87 151.137085
12.88 152.969376
12.89 149.66861
12.90 146.599609
12.91 148.628128
12.92 149.317078
12.93 148.090897
12.94 145.569839
12.95 146.828827
12.96 146.974426
12.97 148.152496
12.98 150.452698
12.99 154.666855
13.00 157.118942
13.01 159.469574
13.02 157.505966
13.03 148.881287
13.04 146.142395
13.05 151.106918
13.06 160.261017
13.07 161.178528
13.08 158.388077
13.09 159.588013
13.10 152.184998
13.11 145.584976
13.12 151.542313
13.13 153.811813
13.14 148.605789
13.15 150.596008
13.16 155.934647
13.17 147.076004
13.18 143.689102
13.19 152.049835
13.20 151.422531
13.21 154.406998
13.22 156.07663
13.23 152.09465
13.24 150.604767
13.25 149.8452
13.26 158.169739
13.27 163.597229
13.28 158.215408
13.29 157.838455
13.30 161.586227
13.31 156.410904
13.32 152.891769
13.33 154.063522
13.34 156.999069
13.35 160.353607
13.36 161.81955
13.37 160.598007
13.38 157.183105
13.39 157.225815
13.40 157.919205
13.41 164.345673
13.42 172.054611
13.43 167.875854
13.44 163.309692
13.45 165.478073
13.46 159.511169
13.47 150.77359
13.48 156.710648
13.49 164.136581
13.50 165.475143
13.51 167.29924
13.52 169.420166
13.53 162.510178
13.54 156.957962
13.55 157.126175
13.56 160.171463
13.57 162.163849
13.58 158.581436
13.59 153.872269
13.60 158.19957
13.61 164.259094
13.62 169.58699
13.63 168.479614
13.64 162.836899
13.65 165.100418
13.66 172.076981
13.67 172.447418
13.68 169.887787
13.69 168.827103
13.70 169.213348
13.71 170.232635
13.72 167.842484
13.73 171.131042
13.74 175.268982
13.75 172.192551
13.76 163.775558
13.77 163.153946
13.78 169.803192
13.79 167.509888
13.80 165.483612
13.81 164.419708
13.82 158.148727
13.83 158.424377
13.84 160.489243
13.85 158.951019
13.86 160.881149
13.87 163.154861
13.88 164.985611
13.89 160.260452
13.90 165.499161
13.91 174.723999
13.92 165.419861
13.93 158.901657
13.94 162.713867
13.95 163.082733
13.96 153.958511
13.97 157.273788
13.98 168.736618
13.99 170.718826
14.00 166.352188
14.01 157.103577
14.02 158.363983
14.03 166.907578
14.04 164.030365
14.05 162.940628
14.06 163.788452
14.07 160.025177
14.08 160.870331
14.09 161.34877
14.10 163.288635
14.11 169.226532
14.12 172.33815
14.13 174.202682
14.14 174.143372
14.15 167.033875
14.16 162.135483
14.17 166.621674
14.18 172.953598
14.19 170.019608
14.20 161.149689
14.21 158.592957
14.22 161.768036
14.23 162.076279
14.24 162.978561
14.25 163.731201
14.26 161.577011
14.27 163.529938
14.28 160.882401
14.29 155.702301
14.30 159.419357
14.31 165.534637
14.32 171.359268
14.33 174.632721
14.34 170.59288
14.35 174.99437
14.36 179.001877
14.37 175.094543
14.38 171.080444
14.39 169.277618
14.40 173.234543
14.41 179.072342
14.42 174.387497
14.43 174.496155
14.44 176.371933
14.45 175.294891
14.46 175.145599
14.47 175.270355
14.48 175.447998
14.49 172.955597
14.50 179.692459
14.51 188.185959
14.52 191.145538
14.53 186.667175
14.54 183.226715
14.55 183.52916
14.56 180.70137
14.57 174.813812
14.58 176.984634
14.59 183.770676
14.60 185.155472
14.61 180.205566
14.62 178.487717
14.63 182.423508
14.64 185.397507
14.65 187.31218
14.66 191.463654
14.67 194.260376
14.68 194.400284
14.69 194.802551
14.70 203.121262
14.71 205.878265
14.72 206.773605
14.73 207.510666
14.74 213.37146
14.75 224.559311
14.76 227.131073
14.77 219.446091
14.78 222.414383
14.79 226.612198
14.80 221.134186
14.81 221.08226
14.82 231.922409
14.83 242.586441
14.84 238.519089
14.85 243.789459
14.86 253.285553
14.87 259.672821
14.88 264.244904
14.89 273.301025
14.90 278.614044
14.91 277.268158
14.92 275.790527
14.93 286.4086
14.94 296.979614
14.95 308.084412
14.96 326.544312
14.97 326.53064
14.98 322.97525
14.99 330.710999
15.00 344.307678
15.01 350.921051
15.02 372.452179
15.03 383.384857
15.04 398.998077
15.05 403.972107
15.06 410.472137
15.07 423.38913
15.08 443.171783
15.09 450.122864
15.10 459.317261
15.11 466.512299
15.12 481.068207
15.13 502.770386
15.14 520.168701
15.15 549.167908
15.16 562.667664
15.17 580.922119
15.18 579.308716
15.19 599.292236
15.20 618.079956
15.21 633.863159
15.22 645.77832
15.23 668.815491
15.24 678.725952
15.25 687.481323
15.26 690.184021
15.27 701.929321
15.28 712.265381
15.29 711.512146
15.30 712.982544
15.31 713.965515
15.32 711.375122
15.33 717.411499
15.34 709.735046
15.35 703.272827
15.36 694.449341
15.37 684.289917
15.38 663.576111
15.39 655.208374
15.40 630.451538
15.41 607.473511
15.42 588.996948
15.43 573.236938
15.44 548.109009
15.45 517.32605
15.46 499.639679
15.47 473.418213
15.48 460.614105
15.49 437.243561
15.50 425.915161
15.51 397.111511
15.52 385.64447
15.53 366.181824
15.54 360.319946
15.55 352.015472
15.56 344.919495
15.57 339.871246
15.58 330.29715
15.59 316.854675
15.60 302.335968
15.61 291.759949
15.62 280.848785
15.63 273.265045
15.64 269.489868
15.65 275.596405
15.66 275.348419
15.67 266.607361
15.68 259.978058
15.69 257.862457
15.70 248.009262
15.71 245.949844
15.72 248.418961
15.73 252.273041
15.74 250.473404
15.75 237.562683
15.76 230.843185
15.77 228.27623
15.78 224.645508
15.79 218.393097
15.80 210.212585
15.81 213.805176
15.82 214.854736
15.83 211.260025
15.84 220.976059
15.85 221.694351
15.86 216.892059
15.87 216.917999
15.88 211.702042
15.89 207.081909
15.90 215.261658
15.91 218.143723
15.92 212.469604
15.93 207.731216
15.94 207.223785
15.95 205.186996
15.96 204.566849
15.97 212.122681
15.98 210.836182
15.99 208.304901
16.00 207.177979
16.01 207.676102
16.02 205.358475
16.03 201.444305
16.04 199.168213
16.05 198.978592
16.06 196.577759
16.07 193.181076
16.08 189.686783
16.09 191.062851
16.10 193.285568
16.11 192.088577
16.12 193.983627
16.13 197.844894
16.14 196.877472
16.15 191.229431
16.16 190.393509
16.17 182.67424
16.18 182.407181
16.19 190.458817
16.20 188.952988
16.21 183.614136
16.22 182.725769
16.23 181.599701
16.24 183.176163
16.25 185.510147
16.26 187.270325
16.27 182.190277
16.28 179.629501
16.29 178.943069
16.30 176.934235
16.31 178.143723
16.32 183.394852
16.33 183.980637
16.34 184.180893
16.35 187.622208
16.36 189.1586
16.37 186.419327
16.38 186.802322
16.39 190.259155
16.40 194.117813
16.41 190.865784
16.42 185.7966
16.43 188.260757
16.44 189.749817
16.45 190.309143
16.46 187.19635
16.47 176.214859
16.48 176.971405
16.49 186.932953
16.50 196.621124
16.51 192.364502
16.52 183.163956
16.53 185.520599
16.54 188.684708
16.55 193.944077
16.56 196.775085
16.57 192.52211
16.58 189.908386
16.59 188.8255
16.60 186.885315
16.61 183.942307
16.62 184.214203
16.63 182.742981
16.64 187.28064
16.65 189.003174
16.66 187.69664
16.67 188.43428
16.68 187.184357
16.69 183.643753
16.70 183.334717
16.71 186.128021
16.72 189.983124
16.73 192.66214
16.74 188.998306
16.75 188.370682
16.76 191.741241
16.77 190.175858
16.78 185.285858
16.79 188.165863
16.80 197.564575
16.81 200.302887
16.82 197.380386
16.83 193.350693
16.84 184.347763
16.85 183.436172
16.86 189.361389
16.87 191.612274
16.88 187.761871
16.89 187.961243
16.90 187.368378
16.91 183.334534
16.92 183.89975
16.93 183.642609
16.94 187.241669
16.95 194.228333
16.96 193.268127
16.97 194.61937
16.98 195.466049
16.99 189.580246
17.00 184.641098
17.01 184.996323
17.02 191.620956
17.03 192.254913
17.04 194.21579
17.05 194.831467
17.06 192.31868
17.07 192.11731
17.08 192.517761
17.09 186.073914
17.10 188.299561
17.11 193.411133
17.12 194.204926
17.13 192.63121
17.14 188.8284
17.15 190.514526
17.16 193.181335
17.17 191.301727
17.18 188.606064
17.19 187.533768
17.20 193.110916
17.21 195.101639
17.22 193.074036
17.23 195.599014
17.24 193.579453
17.25 189.715103
17.26 190.325714
17.27 186.839767
17.28 184.131378
17.29 184.301254
17.30 190.81485
17.31 198.237961
17.32 202.090668
17.33 201.028885
17.34 195.106827
17.35 198.055115
17.36 199.98941
17.37 192.36937
17.38 191.513062
17.39 197.065933
17.40 197.393768
17.41 198.081924
17.42 204.796112
17.43 203.951019
17.44 201.12709
17.45 204.568848
17.46 201.305466
17.47 196.009583
17.48 197.581345
17.49 194.799286
17.50 194.477142
17.51 202.012405
17.52 198.956985
17.53 196.246109
17.54 196.849121
17.55 194.413589
17.56 192.781403
17.57 192.102585
17.58 194.83873
17.59 194.511459
17.60 194.977417
17.61 198.520599
17.62 199.390732
17.63 201.868546
17.64 203.193573
17.65 202.375
17.66 204.073898
17.67 200.03363
17.68 197.54924
17.69 198.8181
17.70 198.542908
17.71 196.663956
17.72 195.03154
17.73 195.862289
17.74 197.364655
17.75 201.978134
17.76 208.12149
17.77 206.562698
17.78 200.628326
17.79 200.147308
17.80 206.253784
17.81 212.843048
17.82 210.843719
17.83 208.006149
17.84 210.646439
17.85 211.459869
17.86 208.867676
17.87 206.104721
17.88 205.469788
17.89 203.868713
17.90 201.417389
17.91 199.210358
17.92 201.14267
17.93 203.694351
17.94 205.584641
17.95 202.834412
17.96 199.771652
17.97 201.512009
17.98 207.637161
17.99 214.944901
18.00 209.16098
18.01 205.830948
18.02 204.794006
18.03 196.934509
18.04 195.309082
18.05 198.775589
18.06 201.670624
18.07 206.506363
18.08 203.564102
18.09 206.203583
18.10 212.50177
18.11 205.566986
18.12 200.779877
18.13 200.352753
18.14 201.110703
18.15 207.252853
18.16 208.283051
18.17 207.120209
18.18 211.720627
18.19 210.002304
18.20 207.402817
18.21 208.574326
18.22 209.878708
18.23 208.296875
18.24 205.690948
18.25 206.303024
18.26 202.886108
18.27 207.547241
18.28 212.831635
18.29 212.635071
18.30 210.89212
18.31 212.720093
18.32 215.554504
18.33 216.262711
18.34 217.404099
18.35 214.540482
18.36 210.66806
18.37 211.411804
18.38 216.963913
18.39 221.913315
18.40 221.580505
18.41 218.380325
18.42 214.656708
18.43 216.5784
18.44 216.148743
18.45 208.223175
18.46 211.355209
18.47 219.699112
18.48 226.532669
18.49 225.000748
18.50 221.896759
18.51 221.906067
18.52 221.879547
18.53 228.108963
18.54 225.578171
18.55 216.697464
18.56 218.541504
18.57 216.784912
18.58 219.417236
18.59 219.206848
18.60 214.326538
18.61 217.152695
18.62 219.868835
18.63 218.434662
18.64 218.386215
18.65 220.303665
18.66 220.381897
18.67 215.674835
18.68 216.908188
18.69 224.588348
18.70 224.186646
18.71 219.15831
18.72 214.514435
18.73 214.198898
18.74 216.103928
18.75 222.369049
18.76 227.468582
18.77 223.122269
18.78 219.045532
18.79 219.24971
18.80 217.004959
18.81 218.632187
18.82 222.113037
18.83 219.897705
18.84 219.959564
18.85 218.590561
18.86 221.078659
18.87 225.185852
18.88 229.092911
18.89 228.311005
18.90 223.359467
18.91 223.11998
18.92 227.441879
18.93 228.335953
18.94 229.851593
18.95 229.111374
18.96 226.232849
18.97 224.260284
18.98 224.189835
18.99 223.744904
19.00 231.831085
19.01 238.865662
19.02 235.476196
19.03 232.328339
19.04 230.117157
19.05 231.532791
19.06 233.480301
19.07 230.842911
19.08 226.535858
19.09 223.953979
19.10 223.715271
19.11 220.714279
19.12 214.47435
19.13 216.500336
19.14 220.195343
19.15 224.217178
19.16 229.031342
19.17 221.862732
19.18 214.3349
19.19 217.078323
19.20 222.892136
19.21 229.951538
19.22 233.243896
19.23 233.393387
19.24 233.637756
19.25 230.7939
19.26 232.817932
19.27 234.966309
19.28 232.436478
19.29 230.832108
19.30 229.747482
19.31 227.317169
19.32 227.392303
19.33 234.200897
19.34 240.081223
19.35 237.837387
19.36 232.365982
19.37 235.661392
19.38 240.018082
19.39 238.873093
19.40 236.538467
19.41 230.611511
19.42 230.951843
19.43 237.369308
19.44 240.649002
19.45 241.527908
19.46 236.909348
19.47 232.865479
19.48 235.239166
19.49 237.614182
19.50 234.658768
19.51 234.550064
19.52 237.811783
19.53 233.628113
19.54 237.508163
19.55 243.68721
19.56 242.998093
19.57 242.57193
19.58 242.537827
19.59 243.013077
19.60 244.83696
19.61 243.566772
19.62 245.945114
19.63 253.470535
19.64 251.78981
19.65 249.449173
19.66 253.566574
19.67 258.699554
19.68 250.747971
19.69 240.273758
19.70 242.849045
19.71 249.34729
19.72 241.493195
19.73 234.722717
19.74 238.199478
19.75 243.838989
19.76 246.53215
19.77 244.837189
19.78 241.142639
19.79 246.475082
19.80 252.05806
19.81 248.945572
19.82 249.975754
19.83 247.792099
19.84 242.651108
19.85 241.448761
19.86 244.354706
19.87 254.085449
19.88 256.915009
19.89 256.920258
19.90 258.710175
19.91 254.542969
19.92 252.21167
19.93 254.39798
19.94 252.952286
19.95 248.237595
19.96 241.671295
19.97 242.244034
19.98 246.306183
19.99 247.636841
20.00 248.905197
20.01 246.867279
20.02 249.504181
20.03 252.091553
20.04 252.226486
20.05 255.803101
20.06 257.084808
20.07 255.151321
20.08 253.829529
20.09 259.684143
20.10 261.830627
20.11 260.245728
20.12 262.023682
20.13 260.021881
20.14 259.598999
20.15 259.591675
20.16 255.211212
20.17 252.387192
20.18 260.920166
20.19 265.890198
20.20 259.549591
20.21 249.164078
20.22 244.158401
20.23 251.534943
20.24 262.523712
20.25 267.322296
20.26 267.158783
20.27 266.520782
20.28 260.844482
20.29 256.845764
20.30 260.538544
20.31 264.250519
20.32 263.376953
20.33 266.965912
20.34 264.945068
20.35 254.022339
20.36 252.715866
20.37 253.104675
20.38 253.659393
20.39 254.682098
20.40 253.801498
20.41 259.462372
20.42 265.007599
20.43 268.553558
20.44 270.41156
20.45 268.358551
20.46 264.826874
20.47 262.925659
20.48 261.037781
20.49 261.508392
20.50 261.618134
20.51 264.775177
20.52 272.094055
20.53 269.458984
20.54 268.069336
20.55 272.320648
20.56 270.553986
20.57 273.285248
20.58 273.406952
20.59 269.761475
20.60 273.87973
20.61 277.778534
20.62 274.359497
20.63 269.783691
20.64 271.899414
20.65 274.602142
20.66 274.157715
20.67 271.799011
20.68 272.816345
20.69 269.083496
20.70 268.49646
20.71 270.851929
20.72 271.830139
20.73 272.765869
20.74 273.840363
20.75 273.316833
20.76 271.723724
20.77 273.261841
20.78 274.062744
20.79 270.307434
20.80 268.230774
20.81 270.507538
20.82 272.671478
20.83 281.818542
20.84 279.999878
20.85 276.77771
20.86 280.964294
20.87 283.729492
20.88 279.073242
20.89 275.173615
20.90 273.405609
20.91 269.669586
20.92 272.606537
20.93 280.767059
20.94 280.348145
20.95 272.51062
20.96 266.929291
20.97 269.717377
20.98 272.875671
20.99 279.104492
21.00 279.563599
21.01 277.722382
21.02 276.904175
21.03 274.727905
21.04 272.249512
21.05 271.59668
21.06 274.664093
21.07 274.573639
21.08 268.989838
21.09 266.403656
21.10 275.502502
21.11 278.526581
21.12 274.623566
21.13 281.25885
21.14 289.165833
21.15 292.446045
21.16 288.787598
21.17 287.304199
21.18 289.441742
21.19 289.739838
21.20 288.647125
21.21 284.901062
21.22 280.210999
21.23 282.793823
21.24 284.355865
21.25 287.461639
21.26 288.134308
21.27 289.511139
21.28 290.993866
21.29 289.357025
21.30 288.431976
21.31 288.772369
21.32 287.950165
21.33 287.647034
21.34 287.926239
21.35 287.000916
21.36 288.825867
21.37 293.02124
21.38 298.705109
21.39 295.849792
21.40 294.619446
21.41 294.162537
21.42 296.512238
21.43 301.446625
21.44 302.771637
21.45 302.135559
21.46 301.782074
21.47 297.23053
21.48 288.110687
21.49 282.117889
21.50 290.513397
21.51 295.113098
21.52 294.853546
21.53 294.864563
21.54 303.085052
21.55 310.176178
21.56 310.207855
21.57 310.151276
21.58 307.263092
21.59 304.046265
21.60 305.464233
21.61 308.25296
21.62 309.122986
21.63 311.10968
21.64 314.862091
21.65 320.679871
21.66 320.341217
21.67 319.123535
21.68 319.075165
21.69 316.861267
21.70 314.397034
21.71 309.500549
21.72 307.790924
21.73 312.272278
21.74 313.963959
21.75 316.14856
21.76 316.336945
21.77 319.034515
21.78 321.060486
21.79 320.579651
21.80 318.182037
21.81 310.057648
21.82 308.797058
21.83 313.507477
21.84 315.084564
21.85 314.254272
21.86 313.922882
21.87 308.586731
21.88 306.548553
21.89 308.567139
21.90 305.971558
21.91 303.845428
21.92 298.474976
21.93 302.421875
21.94 311.969147
21.95 314.217804
21.96 308.972443
21.97 309.782288
21.98 312.250183
21.99 307.724243
22.00 303.400879
22.01 299.975952
22.02 301.528839
22.03 308.231537
22.04 312.306915
22.05 313.398895
22.06 309.025787
22.07 304.965179
22.08 302.330841
22.09 305.434601
22.10 310.989136
22.11 314.316742
22.12 315.115784
22.13 315.425262
22.14 313.828613
22.15 308.294006
22.16 307.794128
22.17 307.488861
22.18 306.685089
22.19 306.051544
22.20 305.341522
22.21 309.75766
22.22 314.741486
22.23 314.477692
22.24 312.708099
22.25 314.676788
22.26 319.383636
22.27 317.010345
22.28 309.724396
22.29 308.855591
22.30 300.714722
22.31 292.03186
22.32 296.296143
22.33 304.384186
22.34 308.724091
22.35 310.715027
22.36 310.022736
22.37 311.725433
22.38 314.581665
22.39 310.752502
22.40 301.219818
22.41 298.947296
22.42 303.814026
22.43 304.139648
22.44 303.806458
22.45 308.107452
22.46 311.494659
22.47 313.702148
22.48 311.496124
22.49 311.998718
22.50 314.027496
22.51 313.051025
22.52 311.166931
22.53 305.515289
22.54 306.486542
22.55 312.407562
22.56 314.11499
22.57 309.241608
22.58 313.227234
22.59 315.898041
22.60 308.57074
22.61 311.115448
22.62 319.662476
22.63 313.047516
22.64 312.792053
22.65 311.238312
22.66 313.906189
22.67 318.624481
22.68 315.070404
22.69 310.705414
22.70 308.762054
22.71 306.300232
22.72 307.76416
22.73 312.092377
22.74 319.684174
22.75 321.86673
22.76 318.634613
22.77 316.692261
22.78 316.462677
22.79 315.363922
22.80 314.716888
22.81 318.866425
22.82 318.158569
22.83 313.613159
22.84 314.337463
22.85 312.795654
22.86 315.953644
22.87 317.33551
22.88 314.883148
22.89 311.280182
22.90 310.53183
22.91 314.039032
22.92 315.384888
22.93 315.899658
22.94 312.042114
22.95 310.901154
22.96 318.961151
22.97 325.257263
22.98 327.333923
22.99 322.346863
23.00 320.642029
23.01 320.184235
23.02 314.331116
23.03 314.049622
23.04 318.021423
23.05 317.997406
23.06 317.124237
23.07 316.210327
23.08 316.59964
23.09 315.112366
23.10 313.527069
23.11 314.902954
23.12 322.569885
23.13 321.742645
23.14 314.033051
23.15 315.351074
23.16 315.663788
23.17 316.613922
23.18 320.169006
23.19 319.682159
23.20 324.46225
23.21 324.540649
23.22 329.187744
23.23 334.058258
23.24 332.772247
23.25 328.344543
23.26 322.98407
23.27 326.199341
23.28 329.935944
23.29 327.952393
23.30 326.807434
23.31 329.931061
23.32 329.030457
23.33 326.403412
23.34 325.207306
23.35 319.033813
23.36 314.392273
23.37 309.077148
23.38 308.885925
23.39 313.437469
23.40 324.639099
23.41 330.388336
23.42 325.82074
23.43 316.954193
23.44 319.289825
23.45 320.967712
23.46 319.118225
23.47 317.346527
23.48 322.108093
23.49 325.450439
23.50 327.615234
23.51 329.071411
23.52 326.261261
23.53 325.078979
23.54 325.120056
23.55 329.552948
23.56 328.972656
23.57 322.422241
23.58 326.024811
23.59 329.351349
23.60 328.998169
23.61 324.933777
23.62 324.821625
23.63 330.308228
23.64 331.474365
23.65 330.610962
23.66 328.605865
23.67 328.169678
23.68 326.78009
23.69 323.826111
23.70 325.544281
23.71 325.376892
23.72 323.842194
23.73 323.054626
23.74 318.934296
23.75 321.151123
23.76 330.326447
23.77 330.963196
23.78 329.693665
23.79 333.380707
23.80 332.741852
23.81 331.648834
23.82 330.908844
23.83 328.909668
23.84 333.324707
23.85 333.622528
23.86 328.226746
23.87 323.909088
23.88 324.153625
23.89 325.337524
23.90 328.750122
23.91 329.52597
23.92 320.049255
23.93 320.834076
23.94 332.942719
23.95 339.53772
23.96 337.20697
23.97 340.73645
23.98 341.345795
23.99 336.144226
24.00 336.487793
24.01 333.391968
24.02 331.146942
24.03 337.245667
24.04 339.382782
24.05 339.251923
24.06 340.808777
24.07 338.037872
24.08 334.89386
24.09 335.896881
24.10 331.123535
24.11 325.335754
24.12 333.676086
24.13 342.117889
24.14 340.08902
24.15 332.783813
24.16 330.127045
24.17 326.846039
24.18 327.918762
24.19 335.10498
24.20 336.717102
24.21 333.219482
24.22 330.325226
24.23 330.503052
24.24 331.529694
24.25 336.967224
24.26 336.240601
24.27 334.613525
24.28 336.952972
24.29 336.987823
24.30 341.795441
24.31 346.94986
24.32 346.964111
24.33 337.585419
24.34 329.889923
24.35 329.774536
24.36 337.945801
24.37 348.672852
24.38 345.71759
24.39 336.512512
24.40 334.942108
24.41 341.797424
24.42 342.085754
24.43 334.798279
24.44 329.132965
24.45 328.218353
24.46 328.119659
24.47 328.974274
24.48 325.958527
24.49 325.714783
24.50 334.08786
24.51 340.017365
24.52 336.167053
24.53 335.006744
24.54 330.814392
24.55 331.844086
24.56 335.336487
24.57 334.802765
24.58 327.317017
24.59 324.84668
24.60 329.559052
24.61 329.110291
24.62 328.829132
24.63 331.719971
24.64 330.461517
24.65 333.024414
24.66 333.887024
24.67 327.344635
24.68 328.106842
24.69 330.80722
24.70 330.631714
24.71 334.717255
24.72 335.953125
24.73 338.248657
24.74 341.009827
24.75 334.692871
24.76 323.17688
24.77 321.214111
24.78 328.182007
24.79 331.084534
24.80 327.395752
24.81 326.699707
24.82 331.325226
24.83 333.722412
24.84 334.760315
24.85 335.486603
24.86 339.992462
24.87 340.908356
24.88 337.001434
24.89 341.163147
24.90 336.748962
24.91 329.157928
24.92 329.784027
24.93 333.436127
24.94 334.45636
24.95 331.150269
24.96 330.384003
24.97 332.297394
24.98 332.464874
24.99 335.318024
25.00 336.627167
25.01 333.334717
25.02 336.447632
25.03 337.920898
25.04 332.295319
25.05 327.480164
25.06 331.423065
25.07 332.191772
25.08 331.565552
25.09 337.730133
25.10 345.289001
25.11 343.1828
25.12 343.358246
25.13 343.031616
25.14 337.778076
25.15 339.157379
25.16 340.161011
25.17 337.123016
25.18 329.937378
25.19 331.000061
25.20 335.702332
25.21 339.171539
25.22 339.765747
25.23 331.007782
25.24 325.523407
25.25 323.819214
25.26 323.080933
25.27 325.340332
25.28 326.742432
25.29 322.635864
25.30 326.505585
25.31 333.244965
25.32 335.73291
25.33 331.946594
25.34 330.796661
25.35 333.255829
25.36 332.95578
25.37 331.433624
25.38 329.926025
25.39 330.414124
25.40 334.472443
25.41 334.866943
25.42 336.344696
25.43 336.761505
25.44 331.745728
25.45 327.348206
25.46 324.664032
25.47 321.638062
25.48 324.502441
25.49 335.504517
25.50 342.519501
25.51 340.824615
25.52 341.019745
25.53 341.855316
25.54 340.721588
25.55 337.003998
25.56 332.495209
25.57 330.388336
25.58 331.46579
25.59 341.267639
25.60 345.000671
25.61 341.67395
25.62 337.318817
25.63 334.940643
25.64 334.218628
25.65 330.797333
25.66 327.890198
25.67 330.397156
25.68 334.292664
25.69 337.023407
25.70 336.59079
25.71 333.371887
25.72 329.3703
25.73 329.134766
25.74 327.942688
25.75 329.312592
25.76 331.109344
25.77 328.307404
25.78 325.354492
25.79 326.21933
25.80 329.341949
25.81 330.007599
25.82 326.555084
25.83 326.049683
25.84 328.169739
25.85 331.154816
25.86 335.221893
25.87 338.726929
25.88 340.589844
25.89 336.908356
25.90 330.985962
25.91 330.197968
25.92 329.309662
25.93 325.181122
25.94 330.104675
25.95 334.756012
25.96 335.812897
25.97 337.200409
25.98 333.224335
25.99 328.003998
26.00 332.057098
26.01 334.502686
26.02 331.740295
26.03 333.013275
26.04 332.461334
26.05 328.898438
26.06 325.696747
26.07 325.108032
26.08 324.987183
26.09 327.829681
26.10 329.548309
26.11 331.70932
26.12 331.643768
26.13 328.940125
26.14 331.046143
26.15 334.44809
26.16 338.825623
26.17 338.223694
26.18 337.322784
26.19 336.635162
26.20 336.332336
26.21 334.358582
26.22 329.863434
26.23 335.350006
26.24 337.890594
26.25 333.869751
26.26 334.16626
26.27 336.882782
26.28 334.143433
26.29 334.913635
26.30 334.306
26.31 339.570984
26.32 340.916779
26.33 337.198425
26.34 341.385529
26.35 335.588654
26.36 328.915985
26.37 332.430817
26.38 337.182007
26.39 341.40329
26.40 335.197937
26.41 329.59256
26.42 333.632843
26.43 336.518188
26.44 337.56311
26.45 334.929993
26.46 331.304718
26.47 329.124359
26.48 330.071655
26.49 325.594299
26.50 322.587219
26.51 330.568909
26.52 337.251984
26.53 342.04364
26.54 340.44751
26.55 329.471649
26.56 322.035065
26.57 322.829254
26.58 323.898712
26.59 326.794891
26.60 329.145966
26.61 329.773499
26.62 332.231354
26.63 333.281433
26.64 336.223724
26.65 338.67923
26.66 333.316162
26.67 335.498962
26.68 339.988251
26.69 335.983704
26.70 334.365601
26.71 338.060364
26.72 334.612335
26.73 329.208313
26.74 328.231995
26.75 330.143677
26.76 331.288239
26.77 328.302704
26.78 329.229614
26.79 336.56189
26.80 341.610626
26.81 339.292053
26.82 334.528076
26.83 333.932831
26.84 331.384277
26.85 332.124878
26.86 330.451385
26.87 327.266968
26.88 328.08548
26.89 331.342743
26.90 329.048218
26.91 324.769318
26.92 326.615967
26.93 324.234772
26.94 318.91214
26.95 322.956909
26.96 328.37735
26.97 330.230743
26.98 334.138336
26.99 339.880005
27.00 340.411163
27.01 336.29126
27.02 335.436737
27.03 332.90509
27.04 328.65799
27.05 323.962067
27.06 329.980621
27.07 340.895935
27.08 341.400482
27.09 334.771576
27.10 331.792786
27.11 334.49173
27.12 331.719452
27.13 326.02655
27.14 323.887115
27.15 324.84259
27.16 324.164063
27.17 321.336121
27.18 320.415466
27.19 319.251648
27.20 324.010101
27.21 332.476868
27.22 331.83313
27.23 327.095337
27.24 327.117462
27.25 333.695984
27.26 333.858429
27.27 328.509796
27.28 324.230804
27.29 324.089447
27.30 326.602234
27.31 328.884674
27.32 331.106171
27.33 332.21524
27.34 332.25705
27.35 333.970398
27.36 335.288727
27.37 337.549377
27.38 334.672302
27.39 333.443146
27.40 331.084656
27.41 331.168304
27.42 333.749481
27.43 335.723053
27.44 331.975403
27.45 326.05777
27.46 323.904419
27.47 328.114868
27.48 334.956421
27.49 332.638855
27.50 329.639954
27.51 329.68338
27.52 325.147705
27.53 324.281799
27.54 324.872253
27.55 322.212524
27.56 320.448242
27.57 322.844391
27.58 325.735535
27.59 324.867004
27.60 325.213623
27.61 325.295776
27.62 327.466339
27.63 326.007172
27.64 323.888428
27.65 327.640991
27.66 328.205597
27.67 322.934845
27.68 322.284607
27.69 324.159668
27.70 325.107758
27.71 325.589508
27.72 325.189575
27.73 329.117737
27.74 326.582306
27.75 320.401611
27.76 321.655243
27.77 325.970398
27.78 330.962158
27.79 332.669708
27.80 332.120819
27.81 328.124573
27.82 322.296448
27.83 320.798523
27.84 321.449524
27.85 321.719879
27.86 328.670502
27.87 334.661072
27.88 332.656952
27.89 333.252533
27.90 330.36618
27.91 332.477905
27.92 333.424561
27.93 325.509277
27.94 327.726898
27.95 334.294067
27.96 334.773193
27.97 328.386475
27.98 328.82489
27.99 329.471649
28.00 328.75589
28.01 322.50412
28.02 309.672546
28.03 308.749664
28.04 313.437775
28.05 319.151428
28.06 321.49588
28.07 327.27829
28.08 333.349487
28.09 328.002197
28.10 324.1828
28.11 327.869812
28.12 326.939514
28.13 322.881561
28.14 321.116608
28.15 319.355988
28.16 315.198792
28.17 314.557617
28.18 316.586914
28.19 316.025269
28.20 316.559723
28.21 322.128876
28.22 319.924652
28.23 318.6651
28.24 318.512085
28.25 321.208679
28.26 323.089355
28.27 323.090302
28.28 320.716888
28.29 323.867004
28.30 326.998383
28.31 325.682648
28.32 319.39212
28.33 322.868805
28.34 330.388367
28.35 332.711975
28.36 325.606293
28.37 320.764465
28.38 320.968872
28.39 324.750397
28.40 326.320953
28.41 324.43573
28.42 317.240448
28.43 316.581299
28.44 317.619141
28.45 318.506226
28.46 324.116638
28.47 327.850159
28.48 325.754303
28.49 324.755798
28.50 329.611938
28.51 332.078064
28.52 326.177734
28.53 321.828033
28.54 316.613068
28.55 316.765808
28.56 318.593292
28.57 319.879761
28.58 321.723297
28.59 324.184662
28.60 321.543457
28.61 320.204407
28.62 317.292542
28.63 316.48877
28.64 320.123444
28.65 318.128754
28.66 316.627594
28.67 320.971741
28.68 318.376404
28.69 316.88324
28.70 320.571259
28.71 321.962494
28.72 317.552948
28.73 314.298553
28.74 315.829651
28.75 311.806244
28.76 310.366455
28.77 318.815704
28.78 320.74765
28.79 320.747192
28.80 323.303619
28.81 326.071503
28.82 320.703094
28.83 317.112976
28.84 321.877106
28.85 325.60556
28.86 320.009125
28.87 313.930481
28.88 315.130219
28.89 315.593903
28.90 314.5849
28.91 321.665375
28.92 328.770538
28.93 327.646423
28.94 324.876831
28.95 320.295532
28.96 320.002594
28.97 322.381836
28.98 321.482086
28.99 314.974487
29.00 311.462585
29.01 311.029633
29.02 314.146332
29.03 321.124603
29.04 322.109039
29.05 323.266296
29.06 326.288269
29.07 323.902802
29.08 318.511475
29.09 316.134888
29.10 315.96521
29.11 318.865906
29.12 321.976318
29.13 322.138855
29.14 319.314209
29.15 316.139771
29.16 316.144104
29.17 312.920441
29.18 312.024567
29.19 319.378113
29.20 321.581299
29.21 320.426331
29.22 317.716125
29.23 315.560089
29.24 318.830994
29.25 320.067383
29.26 319.959747
29.27 321.269287
29.28 319.503754
29.29 319.223816
29.30 319.569092
29.31 315.455231
29.32 313.522858
29.33 312.368317
29.34 308.401215
29.35 311.578247
29.36 316.434265
29.37 316.322754
29.38 322.901855
29.39 324.750153
29.40 326.868896
29.41 326.225433
29.42 323.892548
29.43 326.016998
29.44 323.884186
29.45 320.925964
29.46 318.214752
29.47 316.312103
29.48 319.543274
29.49 320.653442
29.50 319.072449
29.51 322.815369
29.52 326.076508
29.53 325.989532
29.54 326.533691
29.55 319.539856
29.56 314.057373
29.57 309.875031
29.58 305.640747
29.59 307.157318
29.60 309.126831
29.61 311.639038
29.62 318.095337
29.63 320.527252
29.64 320.894714
29.65 318.100616
29.66 314.578064
29.67 317.472504
29.68 319.378113
29.69 321.702057
29.70 317.472839
29.71 317.087677
29.72 321.959778
29.73 323.901886
29.74 317.539459
29.75 317.522339
29.76 317.930298
29.77 319.121674
29.78 317.205444
29.79 315.889679
29.80 320.785431
29.81 321.05658
29.82 314.336151
29.83 310.771332
29.84 314.050201
29.85 316.521088
29.86 316.487213
29.87 316.302155
29.88 315.824158
29.89 316.887878
29.90 319.130768
29.91 322.612396
29.92 316.612122
29.93 311.861755
29.94 310.128632
29.95 312.719025
29.96 310.877625
29.97 307.602753
29.98 314.703003
29.99 318.492584
30.00 319.848145
30.01 318.915039
30.02 314.272339
30.03 311.670441
30.04 314.546997
30.05 311.590942
30.06 312.024353
30.07 317.318787
30.08 318.161896
30.09 320.580536
30.10 328.622498
30.11 324.449005
30.12 318.996643
30.13 324.072449
30.14 327.531464
30.15 331.001617
30.16 337.474884
30.17 335.224579
30.18 331.051666
30.19 323.953308
30.20 318.666321
30.21 321.229279
30.22 322.340546
30.23 318.106995
30.24 317.228058
30.25 316.509399
30.26 318.43808
30.27 320.19574
30.28 321.463562
30.29 322.921326
30.30 328.383026
30.31 330.414978
30.32 331.327606
30.33 330.773987
30.34 320.973938
30.35 317.424103
30.36 319.572601
30.37 318.96582
30.38 318.200043
30.39 319.79184
30.40 324.149658
30.41 327.872009
30.42 329.891418
30.43 325.566772
30.44 324.12796
30.45 327.177216
30.46 328.92868
30.47 329.862549
30.48 329.625122
30.49 332.133545
30.50 330.055634
30.51 323.562164
30.52 324.657776
30.53 325.790527
30.54 329.618042
30.55 339.184296
30.56 344.445984
30.57 342.32489
30.58 339.521698
30.59 339.936279
30.60 339.450928
30.61 337.480988
30.62 338.22467
30.63 342.633484
30.64 345.364929
30.65 350.988251
30.66 350.559113
30.67 344.378235
30.68 347.514008
30.69 352.304169
30.70 356.945709
30.71 354.329529
30.72 356.984985
30.73 361.032257
30.74 368.629578
30.75 381.130646
30.76 386.022644
30.77 392.060638
30.78 389.187164
30.79 390.482544
30.80 396.802094
30.81 413.456299
30.82 426.824463
30.83 431.866241
30.84 429.612671
30.85 430.204926
30.86 435.210297
30.87 437.978729
30.88 439.873047
30.89 442.09967
30.90 443.411011
30.91 443.641968
30.92 446.661041
30.93 450.796509
30.94 452.164337
30.95 450.579193
30.96 447.401398
30.97 442.338989
30.98 437.270142
30.99 426.316864
31.00 432.195038
31.01 443.16095
31.02 443.269226
31.03 440.720306
31.04 433.814697
31.05 425.05188
31.06 420.773224
31.07 417.722992
31.08 409.191193
31.09 403.368103
31.10 388.734497
31.11 379.024109
31.12 372.252258
31.13 365.523621
31.14 366.719879
31.15 362.982361
31.16 365.065277
31.17 356.910583
31.18 351.886108
31.19 349.736908
31.20 345.566803
31.21 339.186432
31.22 335.876831
31.23 336.092041
31.24 330.274689
31.25 328.280243
31.26 321.271454
31.27 317.007599
31.28 321.045349
31.29 322.374573
31.30 322.186584
31.31 319.311401
31.32 319.910461
31.33 325.925049
31.34 326.190613
31.35 316.0112
31.36 316.67157
31.37 316.81781
31.38 316.33728
31.39 314.191162
31.40 317.384521
31.41 317.238434
31.42 312.386169
31.43 313.684326
31.44 313.669922
31.45 305.714355
31.46 299.657776
31.47 299.054565
31.48 300.828003
31.49 300.895172
31.50 301.112061
31.51 302.863861
31.52 303.666504
31.53 305.92868
31.54 304.453918
31.55 307.396515
31.56 307.414764
31.57 299.893372
31.58 299.751984
31.59 300.972412
31.60 296.113251
31.61 295.200439
31.62 294.606323
31.63 293.342224
31.64 296.180542
31.65 301.766327
31.66 305.513763
31.67 300.982941
31.68 296.083649
31.69 293.697754
31.70 289.48761
31.71 292.965515
31.72 296.816498
31.73 301.120178
31.74 301.595459
31.75 300.618347
31.76 303.257019
31.77 304.076965
31.78 305.63681
31.79 300.424133
31.80 295.568695
31.81 293.779999
31.82 293.481079
31.83 291.539703
31.84 296.818573
31.85 294.713745
31.86 288.40451
31.87 287.148346
31.88 289.666138
31.89 289.549164
31.90 293.167999
31.91 293.149994
31.92 294.652405
31.93 296.594208
31.94 296.202576
31.95 305.306427
31.96 312.10498
31.97 309.898071
31.98 303.25882
31.99 297.803436
32.00 287.754364
32.01 285.80545
32.02 291.363831
32.03 291.273743
32.04 290.768127
32.05 294.988281
32.06 294.292877
32.07 294.914215
32.08 296.74884
32.09 293.798309
32.10 293.083862
32.11 290.276398
32.12 285.70166
32.13 286.87149
32.14 287.740234
32.15 293.96814
32.16 296.827881
32.17 292.8526
32.18 290.775269
32.19 288.203369
32.20 289.212799
32.21 295.093842
32.22 292.320465
32.23 288.864075
32.24 285.387665
32.25 283.246613
32.26 285.021545
32.27 286.354614
32.28 285.258026
32.29 279.641174
32.30 280.148773
32.31 282.927704
32.32 287.261719
32.33 293.619843
32.34 295.124695
32.35 292.488708
32.36 285.502625
32.37 279.48996
32.38 274.265991
32.39 277.743713
32.40 282.143555
32.41 283.401703
32.42 285.069
32.43 282.947144
32.44 280.704956
32.45 281.759308
32.46 279.86499
32.47 280.358704
32.48 276.868256
32.49 276.213593
32.50 283.25061
32.51 288.987213
32.52 290.159882
32.53 282.712921
32.54 280.153992
32.55 279.7229
32.56 277.982849
32.57 279.276917
32.58 278.806152
32.59 279.658264
32.60 278.018005
32.61 273.445923
32.62 278.174011
32.63 282.772369
32.64 276.444916
32.65 274.454742
32.66 272.566589
32.67 271.949219
32.68 275.655548
32.69 280.408295
32.70 281.820374
32.71 281.362701
32.72 279.223541
32.73 276.274261
32.74 275.225311
32.75 277.537842
32.76 272.822418
32.77 268.338959
32.78 270.528809
32.79 274.427155
32.80 274.276398
32.81 271.944031
32.82 275.895233
32.83 274.176392
32.84 269.723328
32.85 274.63913
32.86 282.08252
32.87 279.063019
32.88 279.21756
32.89 277.977478
32.90 273.940002
32.91 267.783722
32.92 268.658356
32.93 272.853149
32.94 275.178772
32.95 275.961761
32.96 276.33905
32.97 271.207092
32.98 267.805908
32.99 270.569305
33.00 273.179108
33.01 276.766693
33.02 280.084259
33.03 277.899902
33.04 272.472046
33.05 272.618866
33.06 273.064575
33.07 269.435608
33.08 268.694794
33.09 268.401794
33.10 269.532318
33.11 274.314911
33.12 276.854218
33.13 277.468231
33.14 282.242706
33.15 280.771851
33.16 276.49118
33.17 271.049286
33.18 273.477234
33.19 276.678162
33.20 276.601471
33.21 276.554077
33.22 275.014984
33.23 275.949219
33.24 278.532196
33.25 276.535828
33.26 274.728485
33.27 272.653412
33.28 268.600586
33.29 267.15744
33.30 269.794952
33.31 267.741974
33.32 269.251099
33.33 271.275055
33.34 266.397614
33.35 265.989899
33.36 265.688751
33.37 262.947235
33.38 261.660736
33.39 268.638855
33.40 273.287018
33.41 271.482239
33.42 269.494232
33.43 266.396515
33.44 266.725983
33.45 266.211761
33.46 266.255096
33.47 272.120239
33.48 271.75882
33.49 270.450348
33.50 270.176422
33.51 267.991241
33.52 265.863983
33.53 265.846649
33.54 264.717712
33.55 260.58667
33.56 258.220428
33.57 261.187714
33.58 263.566742
33.59 263.493835
33.60 261.180664
33.61 263.138306
33.62 263.915314
33.63 260.483978
33.64 259.76767
33.65 261.230499
33.66 260.690002
33.67 259.216553
33.68 264.582611
33.69 269.859894
33.70 271.106354
33.71 273.079803
33.72 270.970032
33.73 263.575562
33.74 256.732605
33.75 258.550842
33.76 263.78833
33.77 264.690125
33.78 266.193298
33.79 264.151367
33.80 261.123657
33.81 261.348785
33.82 261.132599
33.83 260.682404
33.84 261.712585
33.85 262.33429
33.86 257.756042
33.87 256.42749
33.88 262.756622
33.89 261.464569
33.90 261.468414
33.91 263.59079
33.92 267.74765
33.93 263.397614
33.94 260.550262
33.95 262.53183
33.96 264.680054
33.97 264.535614
33.98 266.030396
33.99 270.472656
34.00 269.949036
34.01 267.528473
34.02 267.201294
34.03 268.896942
34.04 269.960815
34.05 272.347565
34.06 274.282959
34.07 273.068451
34.08 273.31189
34.09 270.514221
34.10 267.795502
34.11 265.370941
34.12 263.850311
34.13 262.04541
34.14 262.94339
34.15 264.520691
34.16 266.621857
34.17 271.854736
34.18 271.544861
34.19 269.326416
34.20 262.430328
34.21 261.385468
34.22 262.430817
34.23 263.50116
34.24 266.535461
34.25 267.711761
34.26 267.618439
34.27 272.438538
34.28 273.791138
34.29 271.493958
34.30 272.826813
34.31 271.418213
34.32 272.42569
34.33 270.236389
34.34 266.249298
34.35 267.525116
34.36 271.569427
34.37 271.60199
34.38 271.090729
34.39 268.28064
34.40 269.512115
34.41 271.78421
34.42 268.831055
34.43 268.709015
34.44 274.818604
34.45 275.477325
34.46 278.063385
34.47 281.497498
34.48 284.184753
34.49 281.659851
34.50 277.686462
34.51 280.55069
34.52 282.356079
34.53 286.917755
34.54 285.277893
34.55 279.290497
34.56 277.0466
34.57 281.703003
34.58 288.270813
34.59 286.704468
34.60 286.230072
34.61 284.331238
34.62 286.386688
34.63 285.813538
34.64 284.27652
34.65 288.125366
34.66 289.869324
34.67 284.795868
34.68 278.735992
34.69 277.450714
34.70 281.164764
34.71 284.498535
34.72 286.429901
34.73 291.226318
34.74 288.18338
34.75 283.90274
34.76 285.034027
34.77 287.777802
34.78 289.25351
34.79 285.933411
34.80 282.967499
34.81 283.348877
34.82 281.591827
34.83 282.851929
34.84 284.05127
34.85 283.809052
34.86 283.735474
34.87 281.122375
34.88 277.69696
34.89 278.067657
34.90 276.286774
34.91 274.1698
34.92 270.459961
34.93 264.909546
34.94 270.479187
34.95 271.897003
34.96 270.405914
34.97 271.143707
34.98 266.543243
34.99 263.442596
35.00 261.296631
35.01 260.631226
35.02 261.072144
35.03 258.407135
35.04 253.726883
35.05 251.738602
35.06 253.627151
35.07 256.466644
35.08 254.462631
35.09 252.840256
35.10 254.382767
35.11 253.425339
35.12 254.69812
35.13 252.972549
35.14 249.668839
35.15 247.728394
35.16 248.275177
35.17 250.068756
35.18 247.292038
35.19 248.658203
35.20 252.731766
35.21 250.827484
35.22 248.174652
35.23 249.307922
35.24 249.192856
35.25 248.226196
35.26 244.0923
35.27 237.916794
35.28 237.604065
35.29 244.199722
35.30 242.805313
35.31 234.831635
35.32 233.171661
35.33 234.314453
35.34 234.051926
35.35 235.063004
35.36 233.70137
35.37 233.185776
35.38 237.381577
35.39 239.91156
35.40 244.317062
35.41 242.820328
35.42 240.837051
35.43 235.531921
35.44 226.465118
35.45 227.677872
35.46 233.649124
35.47 234.684906
35.48 232.36174
35.49 231.346252
35.50 229.3284
35.51 225.234344
35.52 227.092438
35.53 232.832642
35.54 235.759369
35.55 237.823532
35.56 236.191299
35.57 233.717453
35.58 234.440521
35.59 234.776413
35.60 233.623825
35.61 230.408447
35.62 226.338699
35.63 223.661423
35.64 225.890915
35.65 225.999451
35.66 226.227951
35.67 224.876434
35.68 222.837494
35.69 225.017151
35.70 223.466751
35.71 219.326523
35.72 219.620499
35.73 223.680603
35.74 224.388809
35.75 225.316864
35.76 228.365753
35.77 229.910248
35.78 228.168671
35.79 223.141998
35.80 221.424652
35.81 225.940796
35.82 229.136536
35.83 226.221786
35.84 226.223038
35.85 226.64357
35.86 221.00679
35.87 220.321045
35.88 223.343628
35.89 223.298309
35.90 222.707321
35.91 225.730423
35.92 223.984741
35.93 220.50322
35.94 219.372589
35.95 219.720871
35.96 223.301361
35.97 224.080719
35.98 219.429077
35.99 217.149887
36.00 219.583389
36.01 217.263245
36.02 216.984772
36.03 221.762314
36.04 223.687729
36.05 222.370193
36.06 220.203842
36.07 220.487061
36.08 218.787796
36.09 215.756836
36.10 215.785858
36.11 215.359238
36.12 216.143509
36.13 218.654846
36.14 215.275711
36.15 211.553299
36.16 211.501877
36.17 214.535294
36.18 216.359207
36.19 215.762344
36.20 216.662399
36.21 219.019928
36.22 218.328171
36.23 215.536026
36.24 214.820496
36.25 212.953369
36.26 212.705887
36.27 213.036636
36.28 214.242416
36.29 216.425598
36.30 216.172943
36.31 214.494278
36.32 214.606979
36.33 212.497925
36.34 212.123779
36.35 211.632813
36.36 212.008133
36.37 214.741043
36.38 215.592697
36.39 216.336945
36.40 212.141266
36.41 210.291489
36.42 214.256104
36.43 215.802567
36.44 212.286697
36.45 208.683563
36.46 207.175735
36.47 208.090256
36.48 209.631607
36.49 212.049698
36.50 211.905243
36.51 207.262802
36.52 200.913879
36.53 199.644928
36.54 202.927872
36.55 206.824722
36.56 209.846375
36.57 213.119293
36.58 212.897949
36.59 213.597076
36.60 210.78598
36.61 204.30809
36.62 203.843536
36.63 206.20813
36.64 208.421356
36.65 209.84346
36.66 211.652115
36.67 211.12738
36.68 207.369171
36.69 206.423523
36.70 208.341812
36.71 209.311203
36.72 208.511459
36.73 203.775925
36.74 197.617142
36.75 200.960159
36.76 205.317078
36.77 207.946198
36.78 207.323898
36.79 202.324356
36.80 199.115891
36.81 197.761124
36.82 199.183563
36.83 199.548767
36.84 203.772903
36.85 206.556366
36.86 208.602234
36.87 210.415253
36.88 208.805939
36.89 212.005402
36.90 213.397522
36.91 210.795395
36.92 211.488525
36.93 208.815125
36.94 206.830139
36.95 206.637344
36.96 203.683838
36.97 200.430939
36.98 199.327515
36.99 200.089981
37.00 200.251434
37.01 199.225586
37.02 196.788925
37.03 200.259537
37.04 200.82814
37.05 198.827896
37.06 196.831909
37.07 201.975632
37.08 206.38385
37.09 204.507217
37.10 201.786957
37.11 202.72937
37.12 204.777206
37.13 206.810104
37.14 207.9673
37.15 205.783569
37.16 203.687546
37.17 201.618347
37.18 203.421738
37.19 204.525208
37.20 200.635406
37.21 199.816498
37.22 202.517441
37.23 203.902115
37.24 201.065079
37.25 202.536789
37.26 204.127838
37.27 203.532578
37.28 203.600784
37.29 200.433334
37.30 196.349899
37.31 195.443085
37.32 198.186646
37.33 199.977753
37.34 196.490845
37.35 191.975662
37.36 189.16922
37.37 190.034332
37.38 192.097702
37.39 191.985886
37.40 193.468338
37.41 193.221405
37.42 190.591843
37.43 192.27124
37.44 195.302124
37.45 199.138718
37.46 200.339142
37.47 197.212997
37.48 194.351608
37.49 188.272614
37.50 189.668823
37.51 194.172943
37.52 197.303238
37.53 197.549408
37.54 195.313705
37.55 194.609756
37.56 197.071777
37.57 201.345596
37.58 199.428253
37.59 195.694809
37.60 194.781281
37.61 196.916855
37.62 195.996994
37.63 193.540939
37.64 194.743042
37.65 195.617401
37.66 195.063065
37.67 196.416885
37.68 201.473251
37.69 202.593887
37.70 198.789856
37.71 194.737579
37.72 195.204254
37.73 197.856506
37.74 196.002365
37.75 194.065582
37.76 197.80304
37.77 198.689713
37.78 196.929306
37.79 198.038422
37.80 200.066635
37.81 198.850967
37.82 196.257492
37.83 196.449356
37.84 195.884277
37.85 191.98642
37.86 195.754013
37.87 199.512299
37.88 195.574051
37.89 190.143478
37.90 192.288803
37.91 196.245026
37.92 197.900131
37.93 201.950958
37.94 201.74411
37.95 200.916824
37.96 200.852997
37.97 198.712143
37.98 201.110245
37.99 198.752228
38.00 198.30722
38.01 201.730988
38.02 199.055801
38.03 194.501007
38.04 194.17334
38.05 195.949234
38.06 195.368958
38.07 198.306854
38.08 200.337326
38.09 202.322433
38.10 200.949371
38.11 196.523804
38.12 196.871735
38.13 194.743286
38.14 198.000992
38.15 203.092575
38.16 202.841202
38.17 201.794296
38.18 202.028915
38.19 201.680878
38.20 200.895859
38.21 198.296478
38.22 197.995834
38.23 199.131912
38.24 195.483704
38.25 193.780579
38.26 197.68132
38.27 194.12912
38.28 190.866241
38.29 192.404465
38.30 194.446472
38.31 192.439468
38.32 191.593643
38.33 191.315781
38.34 191.317383
38.35 191.789444
38.36 193.170013
38.37 194.703125
38.38 195.334946
38.39 190.49353
38.40 186.928253
38.41 191.228287
38.42 197.492661
38.43 197.052551
38.44 190.8349
38.45 189.426514
38.46 192.478928
38.47 188.115799
38.48 186.480667
38.49 189.147995
38.50 191.147339
38.51 193.994354
38.52 193.525681
38.53 195.205475
38.54 197.090286
38.55 194.555679
38.56 189.359879
38.57 188.446045
38.58 189.309937
38.59 194.804993
38.60 197.520462
38.61 193.980347
38.62 189.286575
38.63 190.052307
38.64 192.14447
38.65 189.433212
38.66 189.606049
38.67 188.514206
38.68 187.218079
38.69 188.342957
38.70 187.043884
38.71 186.736313
38.72 187.392548
38.73 190.16626
38.74 192.232788
38.75 189.515076
38.76 184.174637
38.77 185.145264
38.78 188.688828
38.79 191.451492
38.80 192.828247
38.81 188.668625
38.82 181.420471
38.83 178.651398
38.84 179.035263
38.85 181.756912
38.86 186.076111
38.87 190.057388
38.88 189.467087
38.89 186.579117
38.90 184.847305
38.91 183.646149
38.92 186.349976
38.93 187.102707
38.94 189.171982
38.95 187.00087
38.96 180.469162
38.97 183.614655
38.98 184.112778
38.99 177.795319
39.00 177.865555
39.01 183.225449
39.02 185.465393
39.03 183.551559
39.04 186.610886
39.05 192.820145
39.06 192.067917
39.07 186.227646
39.08 183.609818
39.09 184.894501
39.10 185.359741
39.11 185.166107
39.12 180.353592
39.13 178.039398
39.14 181.938065
39.15 182.400375
39.16 181.321182
39.17 182.252991
39.18 184.438614
39.19 185.194687
39.20 183.741776
39.21 181.728699
39.22 182.954926
39.23 183.623444
39.24 184.678391
39.25 185.793839
39.26 185.760071
39.27 188.097427
39.28 184.512512
39.29 180.772385
39.30 177.954605
39.31 176.742828
39.32 177.612091
39.33 179.382523
39.34 183.636719
39.35 184.143188
39.36 184.120956
39.37 180.591156
39.38 181.272705
39.39 182.237411
39.40 183.960266
39.41 185.023621
39.42 180.630142
39.43 180.734756
39.44 183.49057
39.45 181.999008
39.46 182.66423
39.47 184.897934
39.48 184.04509
39.49 184.390259
39.50 184.38504
39.51 185.364029
39.52 182.300308
39.53 176.36937
39.54 175.514709
39.55 179.090683
39.56 184.400421
39.57 185.603271
39.58 181.429337
39.59 179.629929
39.60 180.858383
39.61 184.041473
39.62 184.513412
39.63 185.915756
39.64 187.472473
39.65 181.807632
39.66 181.998413
39.67 184.331329
39.68 184.121124
39.69 184.029419
39.70 178.511765
39.71 179.839294
39.72 182.860474
39.73 185.277618
39.74 185.884781
39.75 183.647797
39.76 179.564087
39.77 174.494507
39.78 175.774384
39.79 177.398026
39.80 177.283127
39.81 179.586456
39.82 185.018921
39.83 188.194656
39.84 182.861664
39.85 179.156219
39.86 183.648636
39.87 186.361618
39.88 183.398621
39.89 179.240051
39.90 180.054138
39.91 184.033905
39.92 182.949524
39.93 178.218201
39.94 178.639786
39.95 182.286652
39.96 179.433975
39.97 174.831253
39.98 174.965652
39.99 178.233536
40.00 181.594818
40.01 179.954117
40.02 175.375244
40.03 176.964722
40.04 178.696533
40.05 179.311646
40.06 179.984055
40.07 175.238998
40.08 173.943939
40.09 178.559525
40.10 181.076035
40.11 180.058716
40.12 177.831116
40.13 176.57309
40.14 178.991379
40.15 180.683731
40.16 180.197968
40.17 181.565002
40.18 182.856186
40.19 182.36438
40.20 180.869125
40.21 180.896866
40.22 178.627747
40.23 179.301727
40.24 181.149277
40.25 181.08046
40.26 178.10939
40.27 176.171799
40.28 178.466202
40.29 178.952942
40.30 177.086044
40.31 176.500626
40.32 175.742203
40.33 174.437729
40.34 176.456497
40.35 178.917221
40.36 184.827042
40.37 187.615326
40.38 182.280151
40.39 178.835175
40.40 178.163742
40.41 182.238983
40.42 185.416168
40.43 185.472183
40.44 188.971008
40.45 189.967239
40.46 186.328186
40.47 185.0215
40.48 186.46965
40.49 183.829117
40.50 177.938477
40.51 176.311371
40.52 176.894043
40.53 182.110718
40.54 183.944275
40.55 178.798782
40.56 171.58638
40.57 168.494781
40.58 174.746399
40.59 180.645142
40.60 179.784241
40.61 176.822769
40.62 174.501984
40.63 178.564362
40.64 181.775589
40.65 181.867599
40.66 182.600708
40.67 179.17807
40.68 176.373978
40.69 179.832031
40.70 181.765366
40.71 181.949493
40.72 181.875702
40.73 180.726898
40.74 179.388702
40.75 178.312134
40.76 178.892715
40.77 176.757263
40.78 175.97345
40.79 178.905457
40.80 178.025162
40.81 172.96814
40.82 171.662308
40.83 176.389374
40.84 178.559616
40.85 178.044083
40.86 178.02858
40.87 177.553589
40.88 176.229858
40.89 175.993912
40.90 177.251907
40.91 176.804688
40.92 174.778793
40.93 177.48439
40.94 180.754639
40.95 179.19162
40.96 174.80098
40.97 178.256378
40.98 181.068481
40.99 182.05159
41.00 184.317017
41.01 181.765213
41.02 176.947662
41.03 174.499023
41.04 174.478104
41.05 173.612961
41.06 171.980453
41.07 174.039032
41.08 175.022736
41.09 178.659454
41.10 180.286484
