!@!!GADDS PLOTSO FILE: Chi integration type
!@!!Title/SampleName: ML_MAPbX3
!@!!User: NREL
!@!!Site: NREL SERF C211; SN 2510
!@!!Frame: 081022_MLProject_000_013.gfrm
!@!!Wavelengths    1.54184   1.54056   1.54439
!@!!Frame angles: 2Theta: 28.000 Omega: 5.000 Phi: 0.000 Chi: 90.000
!@!!Integration range: 2Theta: 10.000 to 41.100  Gamma: -120.400 to -60.400
!@!!Integration method: bin normalized
!@!N
!@!SS
!@!M
!@!L 0.0 0.0 0.0 0.0
!@!XDegrees
!@!YCounts
10.00 202.2836
10.01 194.784058
10.02 191.907913
10.03 193.267471
10.04 191.116776
10.05 192.207199
10.06 197.214523
10.07 200.90686
10.08 202.885956
10.09 199.328506
10.10 197.986511
10.11 190.854309
10.12 182.730362
10.13 183.862534
10.14 190.63031
10.15 191.995834
10.16 196.180252
10.17 199.415375
10.18 201.463562
10.19 206.363724
10.20 199.773544
10.21 203.856186
10.22 203.480194
10.23 193.403641
10.24 194.454224
10.25 199.040009
10.26 197.74176
10.27 197.937164
10.28 198.784714
10.29 201.719467
10.30 206.307831
10.31 205.674454
10.32 198.448547
10.33 197.635345
10.34 200.8237
10.35 197.733719
10.36 195.112427
10.37 189.067032
10.38 194.514267
10.39 203.738571
10.40 198.596786
10.41 191.438766
10.42 192.344147
10.43 191.394409
10.44 192.827621
10.45 202.019058
10.46 197.384186
10.47 197.013641
10.48 203.3461
10.49 204.736923
10.50 202.747131
10.51 197.595947
10.52 194.851105
10.53 199.334137
10.54 207.187241
10.55 205.806519
10.56 198.364456
10.57 198.602844
10.58 211.776306
10.59 210.432251
10.60 202.37912
10.61 202.029816
10.62 204.811203
10.63 210.5354
10.64 206.158371
10.65 198.664108
10.66 202.374481
10.67 206.699982
10.68 210.682709
10.69 215.552628
10.70 221.029022
10.71 221.257248
10.72 217.366302
10.73 214.434219
10.74 199.870651
10.75 190.570938
10.76 196.355164
10.77 202.936798
10.78 202.310318
10.79 204.937408
10.80 208.791367
10.81 203.459366
10.82 200.267746
10.83 200.593307
10.84 201.011383
10.85 205.121185
10.86 207.512894
10.87 208.051834
10.88 211.256149
10.89 208.80217
10.90 201.23204
10.91 204.272507
10.92 209.083908
10.93 202.786392
10.94 210.042999
10.95 222.480942
10.96 219.557587
10.97 213.358536
10.98 211.310425
10.99 215.827591
11.00 216.745621
11.01 219.420105
11.02 217.333145
11.03 204.821335
11.04 201.635208
11.05 206.182175
11.06 211.451416
11.07 217.012558
11.08 218.131882
11.09 215.618698
11.10 209.482117
11.11 208.0923
11.12 213.835236
11.13 218.052551
11.14 226.383545
11.15 224.454788
11.16 222.029266
11.17 226.532303
11.18 220.452637
11.19 214.552887
11.20 209.447739
11.21 208.900024
11.22 212.901932
11.23 211.100952
11.24 212.333694
11.25 220.096344
11.26 227.319748
11.27 218.451538
11.28 206.932571
11.29 208.914368
11.30 207.508575
11.31 210.091568
11.32 212.478592
11.33 211.540039
11.34 213.23912
11.35 214.073196
11.36 214.919479
11.37 219.543213
11.38 221.100281
11.39 218.610519
11.40 210.990311
11.41 213.637589
11.42 222.550156
11.43 222.421661
11.44 231.221695
11.45 231.506287
11.46 222.290955
11.47 217.669601
11.48 222.383957
11.49 227.328445
11.50 233.438934
11.51 236.340805
11.52 233.666779
11.53 234.187027
11.54 230.376816
11.55 228.29866
11.56 226.24884
11.57 223.902786
11.58 220.115585
11.59 212.947586
11.60 208.007004
11.61 213.059769
11.62 216.96257
11.63 216.036453
11.64 217.772736
11.65 227.287186
11.66 238.19751
11.67 233.450684
11.68 228.754089
11.69 229.413712
11.70 230.456329
11.71 236.308594
11.72 232.942856
11.73 218.202942
11.74 216.082031
11.75 221.252426
11.76 221.009247
11.77 222.584534
11.78 229.382675
11.79 234.514313
11.80 235.92453
11.81 237.217743
11.82 239.029587
11.83 234.090698
11.84 233.213913
11.85 240.033752
11.86 234.265854
11.87 231.511475
11.88 234.695572
11.89 235.098724
11.90 238.866104
11.91 239.984207
11.92 236.71637
11.93 234.589401
11.94 230.428879
11.95 230.988632
11.96 235.540283
11.97 235.947021
11.98 232.576447
11.99 227.165359
12.00 223.131195
12.01 223.930527
12.02 229.272217
12.03 228.291687
12.04 227.374008
12.05 232.124283
12.06 240.531387
12.07 246.686661
12.08 247.432022
12.09 250.097
12.10 254.844345
12.11 256.891235
12.12 254.540375
12.13 248.806824
12.14 247.329285
12.15 250.116623
12.16 252.311157
12.17 249.05838
12.18 238.088837
12.19 236.972733
12.20 248.262924
12.21 250.069061
12.22 247.005341
12.23 248.442307
12.24 248.844421
12.25 255.851105
12.26 261.133179
12.27 251.594467
12.28 245.152863
12.29 244.467163
12.30 253.726913
12.31 254.866608
12.32 248.751068
12.33 252.415268
12.34 263.123444
12.35 272.901825
12.36 272.546997
12.37 267.246185
12.38 262.053558
12.39 259.209747
12.40 253.895416
12.41 254.425964
12.42 273.035126
12.43 282.237091
12.44 281.645142
12.45 274.092529
12.46 272.657257
12.47 275.013519
12.48 276.780609
12.49 275.435394
12.50 273.238983
12.51 276.60968
12.52 275.659332
12.53 273.430511
12.54 269.552246
12.55 273.37146
12.56 273.005737
12.57 268.869843
12.58 273.92749
12.59 280.924988
12.60 279.503082
12.61 284.222168
12.62 285.70993
12.63 281.378754
12.64 284.408813
12.65 283.40625
12.66 284.252258
12.67 284.955017
12.68 273.376251
12.69 273.066742
12.70 275.777679
12.71 271.030823
12.72 276.257263
12.73 281.784729
12.74 278.700836
12.75 277.502594
12.76 279.276062
12.77 275.231079
12.78 268.718445
12.79 267.937073
12.80 277.094086
12.81 280.870331
12.82 274.119598
12.83 261.856293
12.84 261.763794
12.85 260.74881
12.86 261.699005
12.87 274.113495
12.88 272.66394
12.89 263.959686
12.90 263.096832
12.91 263.135834
12.92 261.214172
12.93 257.004944
12.94 254.251038
12.95 255.181122
12.96 256.360321
12.97 262.350647
12.98 271.791016
12.99 273.139618
13.00 274.068512
13.01 268.976654
13.02 267.003418
13.03 264.892242
13.04 259.51712
13.05 264.624847
13.06 268.131165
13.07 263.83551
13.08 263.335052
13.09 267.259766
13.10 262.425568
13.11 262.317993
13.12 269.337067
13.13 265.039398
13.14 254.76857
13.15 250.92012
13.16 248.441574
13.17 251.024948
13.18 260.420593
13.19 266.968872
13.20 273.733704
13.21 276.741577
13.22 269.993134
13.23 265.215759
13.24 263.097321
13.25 255.973114
13.26 256.639557
13.27 257.715576
13.28 256.436371
13.29 260.601227
13.30 258.924866
13.31 257.767609
13.32 259.296356
13.33 263.804077
13.34 272.212494
13.35 274.52951
13.36 275.201874
13.37 268.302704
13.38 266.247284
13.39 277.448761
13.40 273.060669
13.41 263.934204
13.42 261.096832
13.43 260.651367
13.44 257.63327
13.45 261.717194
13.46 264.500702
13.47 263.959106
13.48 266.288971
13.49 264.035339
13.50 271.431763
13.51 272.14505
13.52 268.438416
13.53 268.973938
13.54 268.773224
13.55 273.027008
13.56 266.108826
13.57 263.154663
13.58 272.748688
13.59 278.491364
13.60 279.679932
13.61 268.209229
13.62 264.700012
13.63 267.52478
13.64 266.824005
13.65 264.00119
13.66 262.591309
13.67 269.533844
13.68 272.749237
13.69 273.752686
13.70 270.537415
13.71 271.895935
13.72 278.508972
13.73 282.990021
13.74 283.265594
13.75 288.906281
13.76 293.123749
13.77 287.57486
13.78 285.18985
13.79 282.010864
13.80 278.833313
13.81 276.052826
13.82 274.689545
13.83 274.304779
13.84 280.172974
13.85 280.54007
13.86 275.75705
13.87 285.168304
13.88 296.958344
13.89 295.07019
13.90 297.164459
13.91 302.949036
13.92 297.137146
13.93 292.442474
13.94 294.982941
13.95 290.093231
13.96 292.816315
13.97 301.5867
13.98 303.429932
13.99 305.64328
14.00 310.107849
14.01 314.403595
14.02 321.265961
14.03 328.845123
14.04 327.002808
14.05 316.425049
14.06 314.968384
14.07 319.622803
14.08 320.960236
14.09 319.940918
14.10 325.785706
14.11 326.670013
14.12 325.477966
14.13 340.469391
14.14 347.054077
14.15 352.479309
14.16 358.765045
14.17 359.554779
14.18 351.883148
14.19 354.998718
14.20 367.093628
14.21 372.803711
14.22 377.317383
14.23 384.080414
14.24 398.805878
14.25 405.784241
14.26 412.076355
14.27 416.282501
14.28 418.048737
14.29 426.13797
14.30 429.030396
14.31 422.857758
14.32 438.431366
14.33 445.323761
14.34 458.066101
14.35 477.550171
14.36 483.760406
14.37 485.624695
14.38 497.381439
14.39 502.145966
14.40 505.575134
14.41 528.048523
14.42 544.357483
14.43 553.853882
14.44 562.54657
14.45 564.816956
14.46 573.493774
14.47 589.309875
14.48 593.687256
14.49 608.514221
14.50 620.038757
14.51 642.797729
14.52 658.267456
14.53 680.308777
14.54 687.116943
14.55 693.814453
14.56 699.765381
14.57 700.574646
14.58 707.706665
14.59 723.756104
14.60 744.032349
14.61 747.741272
14.62 757.964478
14.63 769.424011
14.64 786.987915
14.65 798.31897
14.66 811.481995
14.67 818.432068
14.68 818.059631
14.69 812.867249
14.70 827.798645
14.71 853.718689
14.72 884.276672
14.73 889.013428
14.74 885.490112
14.75 897.688171
14.76 912.141968
14.77 916.165833
14.78 926.761719
14.79 936.573364
14.80 949.360718
14.81 970.184082
14.82 972.83429
14.83 975.037354
14.84 976.386902
14.85 992.860596
14.86 1012.254883
14.87 1020.00824
14.88 1020.090881
14.89 1023.234192
14.90 1020.995178
14.91 1029.428223
14.92 1029.060791
14.93 1024.758057
14.94 1011.053101
14.95 995.110901
14.96 999.103943
14.97 996.807861
14.98 981.858826
14.99 982.147522
15.00 950.852295
15.01 931.891602
15.02 920.839661
15.03 910.639526
15.04 886.700989
15.05 861.857422
15.06 821.691589
15.07 805.924988
15.08 796.051453
15.09 775.2901
15.10 755.935425
15.11 736.132874
15.12 710.042542
15.13 683.030579
15.14 670.358887
15.15 647.032043
15.16 628.647583
15.17 594.208374
15.18 574.714905
15.19 553.994202
15.20 546.768799
15.21 530.879639
15.22 517.359558
15.23 507.206879
15.24 483.454407
15.25 468.135559
15.26 461.616333
15.27 454.282959
15.28 448.47995
15.29 431.616028
15.30 403.667847
15.31 394.013763
15.32 398.853424
15.33 402.34375
15.34 400.530884
15.35 395.490448
15.36 384.902039
15.37 378.52774
15.38 369.715942
15.39 370.225098
15.40 369.478821
15.41 364.850677
15.42 364.383057
15.43 358.789764
15.44 353.464783
15.45 359.559479
15.46 355.002502
15.47 341.007385
15.48 341.148407
15.49 343.742371
15.50 337.328766
15.51 332.8927
15.52 332.691223
15.53 320.478088
15.54 318.954834
15.55 313.630096
15.56 311.719757
15.57 322.650818
15.58 319.176483
15.59 311.706238
15.60 313.799591
15.61 315.934875
15.62 326.43869
15.63 339.132019
15.64 337.175232
15.65 328.824677
15.66 319.903687
15.67 316.902679
15.68 320.008362
15.69 317.887939
15.70 309.050354
15.71 308.500336
15.72 311.273804
15.73 310.83786
15.74 306.416901
15.75 304.867645
15.76 309.437653
15.77 311.84317
15.78 312.237091
15.79 317.299744
15.80 323.461609
15.81 320.680328
15.82 311.902252
15.83 305.810181
15.84 304.515442
15.85 312.104401
15.86 314.66394
15.87 315.601013
15.88 317.072876
15.89 319.095734
15.90 320.001801
15.91 307.231415
15.92 297.221924
15.93 302.67038
15.94 309.229004
15.95 310.279663
15.96 311.463501
15.97 311.813904
15.98 310.649719
15.99 303.97998
16.00 299.28244
16.01 295.662537
16.02 290.237335
16.03 292.135315
16.04 299.735596
16.05 307.392975
16.06 315.245667
16.07 316.03894
16.08 316.719482
16.09 319.150452
16.10 314.306091
16.11 314.44519
16.12 321.711548
16.13 327.945953
16.14 323.481384
16.15 316.005859
16.16 309.413635
16.17 309.402405
16.18 311.367523
16.19 313.505646
16.20 313.453186
16.21 310.515869
16.22 310.95047
16.23 310.30423
16.24 305.778076
16.25 300.326141
16.26 302.906189
16.27 301.330139
16.28 296.006653
16.29 291.268921
16.30 298.082367
16.31 309.386963
16.32 306.188446
16.33 300.954956
16.34 303.532196
16.35 308.680908
16.36 313.566528
16.37 318.70694
16.38 319.310822
16.39 321.606628
16.40 326.728424
16.41 319.733459
16.42 312.004242
16.43 321.077911
16.44 322.725037
16.45 318.014709
16.46 319.017456
16.47 321.26828
16.48 322.434784
16.49 323.156555
16.50 320.748779
16.51 312.98761
16.52 312.979034
16.53 318.194702
16.54 319.831451
16.55 316.474579
16.56 316.238037
16.57 309.10318
16.58 302.243469
16.59 313.838715
16.60 321.151794
16.61 319.972137
16.62 322.624847
16.63 331.108551
16.64 336.924866
16.65 334.831329
16.66 331.852203
16.67 327.120453
16.68 321.43631
16.69 320.802795
16.70 327.138184
16.71 332.226501
16.72 332.438904
16.73 333.639008
16.74 330.377502
16.75 323.777924
16.76 320.624878
16.77 319.027527
16.78 326.768463
16.79 330.244385
16.80 331.901703
16.81 336.829956
16.82 339.979309
16.83 336.789307
16.84 327.649384
16.85 326.737915
16.86 327.267212
16.87 323.720612
16.88 324.27063
16.89 323.3685
16.90 322.738464
16.91 323.015991
16.92 323.526855
16.93 322.613861
16.94 327.970551
16.95 328.872986
16.96 322.411285
16.97 324.562958
16.98 327.719757
16.99 325.667084
17.00 328.247986
17.01 333.388306
17.02 339.800934
17.03 341.836609
17.04 338.954346
17.05 340.168335
17.06 337.530457
17.07 327.823914
17.08 326.66272
17.09 331.347046
17.10 330.571777
17.11 329.571014
17.12 326.91922
17.13 323.630737
17.14 323.811676
17.15 331.225922
17.16 333.96759
17.17 331.153412
17.18 333.072784
17.19 330.271606
17.20 327.165039
17.21 324.8974
17.22 326.389801
17.23 330.222931
17.24 329.641663
17.25 332.761749
17.26 335.848999
17.27 336.016785
17.28 332.770935
17.29 334.750946
17.30 342.601166
17.31 348.05426
17.32 343.927856
17.33 339.515808
17.34 339.768982
17.35 337.060425
17.36 334.4245
17.37 339.892639
17.38 340.40152
17.39 337.119659
17.40 340.886169
17.41 344.412415
17.42 343.445618
17.43 353.583069
17.44 361.788116
17.45 362.463898
17.46 358.238403
17.47 345.62204
17.48 335.161224
17.49 335.722351
17.50 339.438934
17.51 353.644989
17.52 356.677917
17.53 346.571442
17.54 346.297028
17.55 340.777008
17.56 331.275391
17.57 335.965637
17.58 350.565948
17.59 360.237305
17.60 356.155029
17.61 351.72052
17.62 354.88559
17.63 358.810211
17.64 358.200348
17.65 355.427612
17.66 355.602203
17.67 356.798462
17.68 352.4104
17.69 348.703705
17.70 345.703461
17.71 344.094696
17.72 348.74118
17.73 348.68103
17.74 342.800079
17.75 342.348236
17.76 349.756561
17.77 356.459167
17.78 356.949799
17.79 356.107147
17.80 360.464935
17.81 363.286621
17.82 360.295959
17.83 360.284851
17.84 360.610931
17.85 351.949249
17.86 349.106354
17.87 352.669525
17.88 352.577026
17.89 349.444183
17.90 356.103821
17.91 359.156769
17.92 351.53064
17.93 355.174469
17.94 364.106506
17.95 357.016968
17.96 345.718567
17.97 345.363922
17.98 344.871918
17.99 353.458252
18.00 361.730103
18.01 361.36496
18.02 362.044037
18.03 369.662262
18.04 370.410706
18.05 364.189728
18.06 365.69931
18.07 373.637573
18.08 376.461426
18.09 381.012238
18.10 381.930206
18.11 380.338409
18.12 375.300415
18.13 376.443512
18.14 374.597504
18.15 365.684052
18.16 360.296906
18.17 352.994568
18.18 363.282959
18.19 374.43277
18.20 376.013458
18.21 379.309998
18.22 377.910614
18.23 370.236053
18.24 370.909973
18.25 371.888611
18.26 362.991486
18.27 355.128357
18.28 361.813782
18.29 372.157379
18.30 372.625244
18.31 366.426971
18.32 359.940308
18.33 362.814423
18.34 369.213806
18.35 377.589691
18.36 387.769226
18.37 383.909515
18.38 376.576294
18.39 375.127289
18.40 375.125641
18.41 372.768188
18.42 373.698822
18.43 373.227509
18.44 371.303009
18.45 368.983917
18.46 364.384705
18.47 361.740936
18.48 371.713043
18.49 378.521423
18.50 376.936707
18.51 381.655121
18.52 378.731995
18.53 376.105469
18.54 380.653961
18.55 382.088654
18.56 378.393768
18.57 375.090332
18.58 380.427734
18.59 387.589874
18.60 386.674744
18.61 382.049225
18.62 380.836029
18.63 383.69101
18.64 389.073975
18.65 389.563385
18.66 391.186005
18.67 389.11618
18.68 388.545258
18.69 389.203308
18.70 388.855103
18.71 388.849365
18.72 392.173767
18.73 396.70163
18.74 390.894287
18.75 383.565338
18.76 381.782562
18.77 380.748993
18.78 385.717041
18.79 390.131683
18.80 391.179657
18.81 392.193146
18.82 392.108521
18.83 389.36792
18.84 389.020966
18.85 395.418671
18.86 403.367371
18.87 399.743744
18.88 395.16806
18.89 389.935486
18.90 388.685699
18.91 396.333099
18.92 404.199585
18.93 397.42569
18.94 387.05423
18.95 391.517334
18.96 394.670105
18.97 391.90979
18.98 391.19101
18.99 390.332214
19.00 389.5914
19.01 391.975433
19.02 396.277832
19.03 398.263245
19.04 397.17157
19.05 394.092163
19.06 397.986816
19.07 397.329834
19.08 393.903076
19.09 397.677917
19.10 403.98111
19.11 404.312836
19.12 407.208405
19.13 414.636536
19.14 415.185242
19.15 409.964722
19.16 412.843475
19.17 413.365845
19.18 410.845886
19.19 413.874298
19.20 412.740997
19.21 408.043671
19.22 411.711121
19.23 412.297241
19.24 409.027069
19.25 407.894806
19.26 405.570465
19.27 404.340576
19.28 407.323547
19.29 403.118347
19.30 404.632233
19.31 413.545288
19.32 420.10556
19.33 418.376221
19.34 414.285858
19.35 408.002838
19.36 408.765228
19.37 412.206818
19.38 413.033264
19.39 415.191528
19.40 422.828796
19.41 427.672272
19.42 436.939941
19.43 441.999817
19.44 427.577972
19.45 421.32486
19.46 425.806427
19.47 421.031708
19.48 419.61261
19.49 423.341431
19.50 428.418884
19.51 428.708588
19.52 428.087402
19.53 433.103485
19.54 433.961731
19.55 431.757568
19.56 428.403351
19.57 426.201996
19.58 425.148285
19.59 431.052765
19.60 438.980743
19.61 432.896942
19.62 428.911072
19.63 430.944916
19.64 431.936249
19.65 436.36615
19.66 436.865784
19.67 431.932434
19.68 423.485596
19.69 421.491943
19.70 426.702942
19.71 428.449524
19.72 434.488342
19.73 437.607208
19.74 433.0112
19.75 433.384186
19.76 437.620605
19.77 440.779846
19.78 433.916473
19.79 427.168976
19.80 429.218842
19.81 427.988525
19.82 425.064514
19.83 427.425873
19.84 435.689789
19.85 431.43988
19.86 430.872925
19.87 442.621979
19.88 443.064819
19.89 438.255188
19.90 435.522644
19.91 433.809662
19.92 438.171448
19.93 433.099518
19.94 431.040222
19.95 441.038971
19.96 440.452118
19.97 434.93277
19.98 437.986267
19.99 436.301025
20.00 432.068146
20.01 439.363647
20.02 443.335052
20.03 445.361389
20.04 451.843323
20.05 450.46347
20.06 446.80658
20.07 448.269531
20.08 448.112976
20.09 451.642395
20.10 460.615234
20.11 460.752533
20.12 459.249695
20.13 453.381927
20.14 449.340698
20.15 448.588745
20.16 441.76712
20.17 443.089355
20.18 452.545074
20.19 460.08783
20.20 464.102448
20.21 469.257904
20.22 467.688812
20.23 461.130585
20.24 459.611206
20.25 464.707703
20.26 460.090912
20.27 461.297974
20.28 462.514984
20.29 464.539398
20.30 466.478577
20.31 463.49231
20.32 465.805756
20.33 471.816528
20.34 473.96347
20.35 475.395691
20.36 475.806427
20.37 468.319336
20.38 462.477325
20.39 462.707825
20.40 470.919617
20.41 473.14621
20.42 466.6203
20.43 465.804016
20.44 469.607513
20.45 468.647797
20.46 468.162201
20.47 472.460938
20.48 477.112671
20.49 480.860077
20.50 474.371307
20.51 476.076813
20.52 477.820862
20.53 469.176636
20.54 464.101013
20.55 461.054413
20.56 461.422821
20.57 464.21225
20.58 474.485321
20.59 485.758392
20.60 490.643219
20.61 488.84491
20.62 486.967499
20.63 485.360443
20.64 489.466125
20.65 493.68515
20.66 488.581665
20.67 480.831207
20.68 479.999664
20.69 482.680298
20.70 484.964539
20.71 485.947998
20.72 485.868347
20.73 486.711029
20.74 491.455658
20.75 492.684509
20.76 491.900543
20.77 492.378479
20.78 492.688141
20.79 496.185608
20.80 488.569427
20.81 489.091156
20.82 492.887268
20.83 494.568939
20.84 494.359833
20.85 499.900238
20.86 505.338501
20.87 513.787842
20.88 513.258545
20.89 500.004089
20.90 500.840546
20.91 504.261292
20.92 506.755249
20.93 495.903564
20.94 476.256073
20.95 471.409943
20.96 485.38028
20.97 492.91626
20.98 494.554749
20.99 502.255798
21.00 505.057495
21.01 508.435699
21.02 520.450073
21.03 513.631775
21.04 508.074554
21.05 508.142151
21.06 502.970551
21.07 490.76886
21.08 483.674103
21.09 485.940765
21.10 494.4328
21.11 498.50351
21.12 501.782837
21.13 514.990906
21.14 522.707764
21.15 522.414612
21.16 512.550415
21.17 507.670349
21.18 510.441101
21.19 507.55838
21.20 509.780548
21.21 508.751556
21.22 514.060852
21.23 515.947388
21.24 513.704834
21.25 512.80011
21.26 516.169922
21.27 516.901794
21.28 514.913086
21.29 514.350952
21.30 511.14386
21.31 513.216736
21.32 512.350281
21.33 508.500214
21.34 508.504944
21.35 513.941528
21.36 524.736267
21.37 530.127502
21.38 525.114258
21.39 521.738647
21.40 521.721313
21.41 518.504028
21.42 515.265564
21.43 523.690369
21.44 532.089417
21.45 531.357239
21.46 522.967834
21.47 522.666443
21.48 531.955139
21.49 536.064392
21.50 535.728821
21.51 532.771851
21.52 527.449951
21.53 519.42981
21.54 518.92395
21.55 519.382385
21.56 521.177124
21.57 531.929932
21.58 537.441345
21.59 536.761902
21.60 537.919006
21.61 524.026489
21.62 515.624268
21.63 518.307312
21.64 526.610168
21.65 534.160706
21.66 533.432312
21.67 536.479248
21.68 542.657898
21.69 544.531006
21.70 541.0047
21.71 530.786255
21.72 528.64093
21.73 532.350098
21.74 535.02533
21.75 533.656189
21.76 529.033569
21.77 526.672729
21.78 542.140381
21.79 552.676758
21.80 546.632813
21.81 535.719421
21.82 528.15448
21.83 530.486572
21.84 527.933411
21.85 526.738831
21.86 539.576965
21.87 539.174988
21.88 537.967896
21.89 542.161743
21.90 535.867493
21.91 533.126831
21.92 535.781128
21.93 535.880127
21.94 534.760742
21.95 542.693604
21.96 546.485291
21.97 535.164124
21.98 525.412781
21.99 537.865356
22.00 545.528442
22.01 538.360657
22.02 532.308044
22.03 533.548706
22.04 538.876099
22.05 540.165039
22.06 538.343445
22.07 540.692261
22.08 538.896057
22.09 542.708679
22.10 540.580688
22.11 528.75592
22.12 528.361023
22.13 535.356934
22.14 534.636658
22.15 539.232849
22.16 549.165222
22.17 549.073914
22.18 543.451172
22.19 541.909851
22.20 547.71637
22.21 550.410706
22.22 553.793945
22.23 557.159851
22.24 556.160706
22.25 552.350952
22.26 546.543213
22.27 551.634705
22.28 559.730103
22.29 558.537476
22.30 558.187012
22.31 562.539063
22.32 564.85907
22.33 572.571594
22.34 578.406189
22.35 566.32605
22.36 554.404175
22.37 545.944153
22.38 545.886475
22.39 548.343384
22.40 550.955139
22.41 546.170044
22.42 541.775391
22.43 543.069275
22.44 544.401428
22.45 547.842407
22.46 550.726135
22.47 550.572754
22.48 554.038269
22.49 552.399292
22.50 555.455322
22.51 558.219482
22.52 556.907166
22.53 553.092407
22.54 551.845337
22.55 559.873779
22.56 557.992981
22.57 552.507019
22.58 558.935303
22.59 561.51123
22.60 565.768005
22.61 565.064148
22.62 568.73999
22.63 564.054138
22.64 554.901184
22.65 553.998474
22.66 557.168518
22.67 565.905701
22.68 568.508179
22.69 560.435486
22.70 561.420776
22.71 563.614136
22.72 559.286865
22.73 565.385437
22.74 569.995544
22.75 565.733643
22.76 563.520691
22.77 569.66925
22.78 568.24707
22.79 569.354553
22.80 577.04303
22.81 583.132141
22.82 579.248474
22.83 573.78717
22.84 569.204346
22.85 563.783142
22.86 566.01239
22.87 563.04126
22.88 568.481873
22.89 571.750977
22.90 572.393127
22.91 582.603516
22.92 593.393921
22.93 596.812988
22.94 587.585815
22.95 583.772034
22.96 587.081543
22.97 582.514954
22.98 580.684509
22.99 585.998291
23.00 584.565918
23.01 580.393555
23.02 576.914368
23.03 576.06366
23.04 581.093262
23.05 583.569824
23.06 577.17804
23.07 574.689331
23.08 579.8172
23.09 592.038696
23.10 596.906616
23.11 580.799011
23.12 573.272644
23.13 577.636658
23.14 576.452209
23.15 570.982544
23.16 565.375488
23.17 561.957642
23.18 570.485474
23.19 574.589661
23.20 576.007629
23.21 576.083618
23.22 575.084412
23.23 580.243469
23.24 584.72052
23.25 589.174866
23.26 585.659851
23.27 576.997192
23.28 571.897705
23.29 571.195679
23.30 575.553528
23.31 578.115417
23.32 586.39856
23.33 592.579163
23.34 597.137512
23.35 591.670715
23.36 588.279602
23.37 591.866089
23.38 588.575012
23.39 587.808777
23.40 591.240051
23.41 585.864746
23.42 579.166382
23.43 578.672791
23.44 582.390625
23.45 582.900208
23.46 583.535767
23.47 580.190186
23.48 577.711609
23.49 578.527954
23.50 577.794067
23.51 585.811951
23.52 590.494812
23.53 587.919617
23.54 591.694519
23.55 602.533691
23.56 597.108948
23.57 582.952698
23.58 588.138428
23.59 599.385376
23.60 592.86969
23.61 589.840576
23.62 598.981201
23.63 594.14917
23.64 592.573853
23.65 591.313049
23.66 588.870483
23.67 593.674805
23.68 587.962219
23.69 586.594788
23.70 597.440186
23.71 601.702576
23.72 598.273926
23.73 599.614929
23.74 597.30188
23.75 593.342773
23.76 599.166992
23.77 606.205566
23.78 601.929993
23.79 597.363464
23.80 598.160706
23.81 603.151672
23.82 603.314148
23.83 604.962158
23.84 605.371704
23.85 599.36615
23.86 591.267944
23.87 590.427795
23.88 595.541504
23.89 597.164307
23.90 603.696167
23.91 603.723816
23.92 597.233582
23.93 605.10321
23.94 613.674072
23.95 606.997803
23.96 603.628723
23.97 604.270813
23.98 608.6828
23.99 607.247375
24.00 603.674988
24.01 599.684265
24.02 589.531067
24.03 584.293701
24.04 592.598389
24.05 605.991455
24.06 613.36676
24.07 604.16748
24.08 595.157837
24.09 592.134399
24.10 593.122437
24.11 592.505188
24.12 597.893738
24.13 605.699524
24.14 609.402161
24.15 604.802185
24.16 602.889832
24.17 604.361084
24.18 606.082153
24.19 605.8526
24.20 611.279419
24.21 614.47998
24.22 612.140259
24.23 610.95874
24.24 611.528137
24.25 612.445313
24.26 612.560242
24.27 611.291382
24.28 602.442383
24.29 598.368225
24.30 597.541809
24.31 600.704651
24.32 600.017578
24.33 600.412903
24.34 599.625
24.35 600.308899
24.36 605.352051
24.37 604.730225
24.38 606.020142
24.39 607.510986
24.40 604.911194
24.41 602.122986
24.42 603.571411
24.43 608.598999
24.44 609.77594
24.45 603.767517
24.46 600.087646
24.47 595.618103
24.48 597.947388
24.49 603.509644
24.50 606.029236
24.51 607.395752
24.52 611.15271
24.53 618.621094
24.54 614.329102
24.55 609.445129
24.56 613.612244
24.57 619.170044
24.58 618.218445
24.59 614.031799
24.60 614.545166
24.61 611.253723
24.62 608.449768
24.63 603.984497
24.64 595.874695
24.65 597.928894
24.66 604.777527
24.67 603.237915
24.68 599.50824
24.69 606.713074
24.70 610.722595
24.71 612.559753
24.72 617.285278
24.73 613.806396
24.74 609.314697
24.75 613.268921
24.76 607.321777
24.77 600.551208
24.78 602.578003
24.79 601.262695
24.80 596.388855
24.81 596.139465
24.82 596.590637
24.83 598.515381
24.84 601.964539
24.85 608.85437
24.86 607.678528
24.87 601.667236
24.88 605.849609
24.89 612.791748
24.90 609.647949
24.91 610.146729
24.92 618.469055
24.93 623.512817
24.94 620.435181
24.95 609.600037
24.96 607.753723
24.97 608.646118
24.98 609.227417
24.99 610.625488
25.00 613.143555
25.01 619.157593
25.02 619.591187
25.03 615.433167
25.04 604.007568
25.05 599.452881
25.06 607.326416
25.07 615.431824
25.08 616.374878
25.09 614.36554
25.10 613.576843
25.11 611.658264
25.12 613.3703
25.13 613.677795
25.14 609.578308
25.15 608.899475
25.16 604.027954
25.17 602.099304
25.18 608.952026
25.19 609.439148
25.20 614.351257
25.21 618.204468
25.22 618.167847
25.23 611.893433
25.24 611.755859
25.25 611.496338
25.26 611.553406
25.27 615.258911
25.28 622.068848
25.29 618.227051
25.30 613.863892
25.31 615.854736
25.32 619.828491
25.33 616.485229
25.34 604.97699
25.35 603.033447
25.36 604.761597
25.37 608.053955
25.38 615.524475
25.39 621.182739
25.40 620.614136
25.41 619.308105
25.42 629.517395
25.43 633.521362
25.44 626.205322
25.45 620.950745
25.46 616.627136
25.47 615.57428
25.48 615.708435
25.49 612.782715
25.50 610.814453
25.51 607.022461
25.52 601.077454
25.53 603.348572
25.54 616.031128
25.55 623.350952
25.56 628.606995
25.57 627.966492
25.58 628.175415
25.59 627.890015
25.60 628.519653
25.61 622.556152
25.62 617.571899
25.63 609.525269
25.64 603.820374
25.65 603.794373
25.66 612.395081
25.67 621.186523
25.68 618.068726
25.69 617.01947
25.70 623.658386
25.71 625.604248
25.72 630.144775
25.73 634.58551
25.74 630.738953
25.75 628.713684
25.76 616.339844
25.77 604.973999
25.78 602.646667
25.79 607.13501
25.80 612.345276
25.81 614.890808
25.82 615.347534
25.83 614.437622
25.84 616.168091
25.85 618.369324
25.86 617.052673
25.87 615.935852
25.88 615.407471
25.89 621.231934
25.90 623.699768
25.91 620.659912
25.92 622.194824
25.93 625.437927
25.94 625.928528
25.95 626.596375
25.96 630.266785
25.97 627.446899
25.98 629.20874
25.99 630.244263
26.00 615.512573
26.01 609.266296
26.02 615.641296
26.03 620.192322
26.04 618.640991
26.05 610.34967
26.06 607.869385
26.07 610.394958
26.08 612.399902
26.09 617.959656
26.10 620.645081
26.11 620.723083
26.12 618.762512
26.13 620.448303
26.14 619.700989
26.15 615.947876
26.16 620.329834
26.17 621.278809
26.18 612.371765
26.19 612.682251
26.20 617.546692
26.21 614.218079
26.22 615.191711
26.23 626.852356
26.24 633.908936
26.25 622.876831
26.26 620.751587
26.27 622.573242
26.28 617.928955
26.29 613.834839
26.30 612.050476
26.31 612.729248
26.32 620.145142
26.33 616.117188
26.34 614.469299
26.35 617.304321
26.36 611.504517
26.37 606.886292
26.38 608.402893
26.39 611.970947
26.40 607.425415
26.41 607.932983
26.42 612.86438
26.43 611.082397
26.44 608.614441
26.45 610.619324
26.46 611.259216
26.47 608.284668
26.48 603.455139
26.49 602.857117
26.50 603.880371
26.51 603.343445
26.52 614.163696
26.53 620.653442
26.54 610.446228
26.55 601.706848
26.56 607.452942
26.57 616.556152
26.58 607.433533
26.59 604.612671
26.60 608.178223
26.61 610.081665
26.62 613.016602
26.63 616.774414
26.64 616.011963
26.65 614.85675
26.66 617.477051
26.67 610.857666
26.68 606.848694
26.69 608.088318
26.70 605.123901
26.71 608.445374
26.72 614.457703
26.73 621.082214
26.74 621.989868
26.75 622.149292
26.76 620.312378
26.77 615.749573
26.78 611.754578
26.79 610.562683
26.80 612.354492
26.81 617.921265
26.82 616.953918
26.83 618.811707
26.84 621.646423
26.85 611.825256
26.86 610.631531
26.87 615.325317
26.88 605.890137
26.89 604.739258
26.90 611.84967
26.91 609.585938
26.92 609.973877
26.93 607.942993
26.94 613.735107
26.95 620.361511
26.96 611.66394
26.97 604.042908
26.98 607.25415
26.99 609.427673
27.00 606.138916
27.01 607.852234
27.02 610.452759
27.03 611.263672
27.04 612.943787
27.05 616.731384
27.06 608.171631
27.07 601.889099
27.08 607.187195
27.09 612.622009
27.10 616.898193
27.11 626.010071
27.12 626.001648
27.13 623.818909
27.14 623.856262
27.15 616.811096
27.16 610.835144
27.17 604.073059
27.18 603.310974
27.19 608.638672
27.20 609.625977
27.21 615.959778
27.22 619.343689
27.23 613.089722
27.24 610.463379
27.25 619.052979
27.26 622.667114
27.27 616.747375
27.28 608.846558
27.29 608.888
27.30 611.168945
27.31 619.878357
27.32 626.827393
27.33 616.952026
27.34 613.459045
27.35 616.317505
27.36 614.052429
27.37 608.624451
27.38 600.545959
27.39 601.130493
27.40 605.282715
27.41 600.657898
27.42 597.384277
27.43 601.901245
27.44 608.437988
27.45 608.230286
27.46 612.757141
27.47 613.17041
27.48 604.311646
27.49 607.335938
27.50 612.666809
27.51 613.250732
27.52 612.909607
27.53 609.475159
27.54 608.769958
27.55 612.523682
27.56 608.273865
27.57 607.010925
27.58 603.251648
27.59 604.343018
27.60 609.909363
27.61 612.275513
27.62 616.727051
27.63 613.166199
27.64 606.394226
27.65 609.011108
27.66 609.640442
27.67 610.655334
27.68 612.186096
27.69 621.299988
27.70 619.787781
27.71 612.772278
27.72 618.364929
27.73 616.361816
27.74 606.675537
27.75 604.10022
27.76 597.902222
27.77 596.857361
27.78 600.675598
27.79 600.856812
27.80 606.055481
27.81 605.677368
27.82 597.092712
27.83 595.491333
27.84 597.831299
27.85 602.451294
27.86 603.827209
27.87 606.504761
27.88 612.87207
27.89 614.41803
27.90 612.110718
27.91 608.797729
27.92 604.869873
27.93 604.838806
27.94 603.330872
27.95 603.398743
27.96 603.003418
27.97 609.105713
27.98 607.000427
27.99 610.134033
28.00 613.789795
28.01 609.563416
28.02 608.012634
28.03 604.146362
28.04 598.298645
28.05 598.172485
28.06 601.93457
28.07 605.312622
28.08 605.880859
28.09 601.760742
28.10 600.388733
28.11 602.39447
28.12 601.098816
28.13 604.504395
28.14 600.238647
28.15 603.124939
28.16 608.588745
28.17 612.115967
28.18 612.937012
28.19 613.300598
28.20 609.111023
28.21 602.961792
28.22 603.456909
28.23 600.935669
28.24 598.637329
28.25 610.891235
28.26 619.851074
28.27 621.004089
28.28 616.932373
28.29 613.806213
28.30 606.624939
28.31 600.783447
28.32 599.691101
28.33 598.684265
28.34 607.169678
28.35 613.856445
28.36 610.118713
28.37 601.295044
28.38 595.534241
28.39 594.278748
28.40 599.979004
28.41 609.154724
28.42 609.157349
28.43 608.824951
28.44 605.085449
28.45 605.091492
28.46 613.076294
28.47 607.291626
28.48 600.334473
28.49 604.411743
28.50 610.422607
28.51 618.290771
28.52 620.747925
28.53 612.862793
28.54 611.149353
28.55 616.234985
28.56 615.990601
28.57 613.076965
28.58 610.954163
28.59 608.037231
28.60 611.794678
28.61 616.036621
28.62 606.486816
28.63 604.037781
28.64 608.954102
28.65 603.692993
28.66 599.542725
28.67 608.8797
28.68 611.109009
28.69 603.964233
28.70 602.393555
28.71 601.82489
28.72 602.24353
28.73 597.511963
28.74 600.270447
28.75 610.196655
28.76 617.15863
28.77 613.160034
28.78 612.615295
28.79 620.152283
28.80 618.837463
28.81 612.979675
28.82 612.44635
28.83 612.827576
28.84 616.079346
28.85 616.144287
28.86 612.741699
28.87 614.467346
28.88 611.352234
28.89 613.124939
28.90 629.527832
28.91 636.387085
28.92 629.778015
28.93 629.776123
28.94 630.826904
28.95 629.329102
28.96 627.937134
28.97 623.102295
28.98 620.39679
28.99 628.77417
29.00 630.632507
29.01 631.029907
29.02 637.024536
29.03 637.891968
29.04 642.23822
29.05 643.124817
29.06 640.081055
29.07 641.365784
29.08 643.819946
29.09 636.867981
29.10 639.869019
29.11 650.239136
29.12 654.480713
29.13 651.966431
29.14 658.107483
29.15 661.779541
29.16 662.413574
29.17 665.963013
29.18 664.630798
29.19 667.439026
29.20 676.758484
29.21 679.400085
29.22 674.3573
29.23 667.927979
29.24 672.007202
29.25 679.28656
29.26 677.962402
29.27 676.506775
29.28 671.964783
29.29 670.624023
29.30 683.962769
29.31 687.923584
29.32 693.057251
29.33 695.254456
29.34 691.725403
29.35 690.888916
29.36 699.270447
29.37 699.369263
29.38 692.561829
29.39 693.477295
29.40 696.0578
29.41 698.25177
29.42 705.428406
29.43 707.646423
29.44 706.181519
29.45 706.291687
29.46 704.639038
29.47 701.168884
29.48 698.348511
29.49 703.094421
29.50 708.379761
29.51 712.619019
29.52 719.565186
29.53 719.684814
29.54 717.018433
29.55 713.391907
29.56 704.637146
29.57 703.45166
29.58 705.820374
29.59 707.765991
29.60 711.847229
29.61 714.904236
29.62 713.561523
29.63 713.132751
29.64 715.108643
29.65 715.787354
29.66 717.342896
29.67 717.536926
29.68 715.80304
29.69 715.148499
29.70 714.154297
29.71 719.611877
29.72 731.195496
29.73 731.235901
29.74 726.512756
29.75 721.841248
29.76 724.693481
29.77 728.214172
29.78 725.401245
29.79 723.260925
29.80 720.636658
29.81 734.136658
29.82 752.128418
29.83 755.621887
29.84 748.341492
29.85 746.426758
29.86 744.711182
29.87 736.766968
29.88 731.847412
29.89 739.822205
29.90 747.085266
29.91 748.515076
29.92 752.238586
29.93 762.949585
29.94 763.050354
29.95 756.190308
29.96 752.224792
29.97 759.783203
29.98 767.54303
29.99 773.928284
30.00 772.557678
30.01 767.498413
30.02 758.790466
30.03 744.6203
30.04 746.804016
30.05 758.565918
30.06 759.944092
30.07 762.062256
30.08 762.85907
30.09 764.229248
30.10 776.916138
30.11 787.588928
30.12 797.933044
30.13 796.406738
30.14 786.609741
30.15 780.678284
30.16 784.235962
30.17 794.680847
30.18 804.559082
30.19 807.835022
30.20 798.290649
30.21 796.981628
30.22 796.151245
30.23 790.905884
30.24 792.882324
30.25 795.781006
30.26 796.139526
30.27 800.075439
30.28 802.147705
30.29 795.055908
30.30 785.780151
30.31 771.611084
30.32 760.299194
30.33 761.152771
30.34 762.262329
30.35 759.292542
30.36 764.333618
30.37 767.577881
30.38 766.972412
30.39 761.968933
30.40 751.767883
30.41 741.934326
30.42 750.097351
30.43 744.424744
30.44 735.986877
30.45 731.38031
30.46 723.938599
30.47 716.65033
30.48 702.383667
30.49 695.138367
30.50 699.69043
30.51 691.98877
30.52 675.342834
30.53 671.529541
30.54 674.711365
30.55 670.708374
30.56 666.402466
30.57 654.72522
30.58 645.359863
30.59 640.157104
30.60 636.894348
30.61 639.206543
30.62 640.668396
30.63 639.194214
30.64 637.723267
30.65 626.732971
30.66 622.138794
30.67 622.527832
30.68 617.028503
30.69 612.000488
30.70 608.87085
30.71 603.947021
30.72 596.796692
30.73 593.296936
30.74 592.389587
30.75 586.095642
30.76 583.813293
30.77 586.140137
30.78 589.855713
30.79 592.353699
30.80 593.891907
30.81 592.362549
30.82 585.49884
30.83 587.176514
30.84 591.528259
30.85 594.605347
30.86 596.118103
30.87 594.551086
30.88 594.033264
30.89 588.335266
30.90 579.838074
30.91 578.458069
30.92 581.609985
30.93 583.457153
30.94 583.831238
30.95 575.362793
30.96 567.545959
30.97 567.804993
30.98 575.013062
30.99 579.133972
31.00 578.036133
31.01 577.765076
31.02 576.658569
31.03 577.079285
31.04 575.271423
31.05 571.34021
31.06 568.280762
31.07 568.071716
31.08 565.272217
31.09 568.440308
31.10 574.518005
31.11 568.852234
31.12 560.89209
31.13 558.828003
31.14 563.793823
31.15 565.820374
31.16 566.152283
31.17 566.202881
31.18 562.802856
31.19 554.973694
31.20 553.044495
31.21 555.670044
31.22 564.251831
31.23 570.600769
31.24 570.801819
31.25 570.717102
31.26 563.888611
31.27 559.706421
31.28 564.509338
31.29 565.057495
31.30 565.4505
31.31 566.805359
31.32 559.134033
31.33 559.071655
31.34 560.600586
31.35 558.528625
31.36 560.018494
31.37 560.788574
31.38 556.559753
31.39 555.477051
31.40 553.571045
31.41 551.764587
31.42 546.99176
31.43 546.721558
31.44 546.622681
31.45 551.685608
31.46 564.768372
31.47 569.384766
31.48 563.763489
31.49 553.37616
31.50 547.310364
31.51 546.761414
31.52 550.847656
31.53 552.072327
31.54 551.698792
31.55 550.025513
31.56 548.574585
31.57 549.510681
31.58 548.165588
31.59 549.954346
31.60 550.292114
31.61 550.391907
31.62 554.623657
31.63 558.971619
31.64 558.306946
31.65 556.428711
31.66 555.650696
31.67 554.823059
31.68 547.999329
31.69 542.646179
31.70 542.381348
31.71 541.510986
31.72 545.145142
31.73 551.549377
31.74 551.513367
31.75 548.501282
31.76 542.041382
31.77 540.644104
31.78 543.382507
31.79 540.97406
31.80 537.917847
31.81 542.971558
31.82 547.293274
31.83 543.165649
31.84 540.93335
31.85 543.909668
31.86 546.188843
31.87 544.021851
31.88 538.987732
31.89 537.409973
31.90 540.409912
31.91 542.722961
31.92 544.350708
31.93 546.964661
31.94 549.911499
31.95 547.445313
31.96 544.896667
31.97 539.753784
31.98 531.643188
31.99 532.241699
32.00 536.915283
32.01 542.662659
32.02 542.658936
32.03 539.808105
32.04 537.142212
32.05 536.213257
32.06 537.133545
32.07 542.199402
32.08 541.519775
32.09 544.551697
32.10 548.841797
32.11 540.282654
32.12 529.87085
32.13 530.21405
32.14 538.028564
32.15 535.07135
32.16 528.351624
32.17 525.856262
32.18 529.3255
32.19 533.297974
32.20 533.402893
32.21 535.392639
32.22 536.9422
32.23 531.921997
32.24 539.474365
32.25 547.986877
32.26 547.183228
32.27 546.236084
32.28 543.428223
32.29 538.658081
32.30 537.92572
32.31 540.265747
32.32 544.94281
32.33 547.172607
32.34 545.714783
32.35 543.52417
32.36 540.276917
32.37 541.573486
32.38 537.070251
32.39 533.65387
32.40 532.141907
32.41 531.246582
32.42 533.114685
32.43 539.080994
32.44 541.601807
32.45 539.45874
32.46 535.621765
32.47 542.377441
32.48 545.355652
32.49 536.61676
32.50 533.582458
32.51 536.612976
32.52 535.704895
32.53 533.885681
32.54 539.544983
32.55 547.819946
32.56 545.706238
32.57 543.215881
32.58 542.254883
32.59 537.020752
32.60 527.463989
32.61 525.708069
32.62 521.003052
32.63 523.019775
32.64 535.162354
32.65 539.926575
32.66 539.218323
32.67 541.615234
32.68 543.991028
32.69 541.784241
32.70 540.760132
32.71 541.561584
32.72 539.71283
32.73 541.367981
32.74 544.098633
32.75 540.331482
32.76 533.558044
32.77 530.615112
32.78 530.099304
32.79 532.278381
32.80 533.023865
32.81 536.568481
32.82 541.107178
32.83 538.042603
32.84 535.465515
32.85 533.841858
32.86 537.105042
32.87 536.827332
32.88 535.886597
32.89 534.868347
32.90 538.686401
32.91 539.901428
32.92 535.318542
32.93 536.553101
32.94 542.804749
32.95 547.317993
32.96 544.051392
32.97 532.14386
32.98 529.13855
32.99 537.154297
33.00 538.514709
33.01 538.691956
33.02 534.065674
33.03 531.993774
33.04 539.139954
33.05 541.325012
33.06 542.437134
33.07 543.136902
33.08 544.94574
33.09 542.544739
33.10 537.838562
33.11 532.787231
33.12 530.459656
33.13 523.442261
33.14 521.95813
33.15 519.5672
33.16 522.231934
33.17 525.22229
33.18 529.9151
33.19 538.964966
33.20 538.213562
33.21 538.906128
33.22 543.011475
33.23 538.408264
33.24 534.527527
33.25 535.650879
33.26 536.385803
33.27 530.617676
33.28 533.676086
33.29 538.389832
33.30 539.279846
33.31 538.299866
33.32 542.799561
33.33 546.064209
33.34 545.860168
33.35 541.508606
33.36 541.298218
33.37 540.515259
33.38 539.278137
33.39 539.062439
33.40 534.089478
33.41 534.000366
33.42 542.462036
33.43 548.876587
33.44 552.563477
33.45 546.449036
33.46 544.828003
33.47 546.78479
33.48 547.511047
33.49 545.499817
33.50 539.66449
33.51 539.926575
33.52 543.43219
33.53 545.125244
33.54 546.339905
33.55 547.267029
33.56 547.846802
33.57 547.832825
33.58 540.665833
33.59 534.940125
33.60 534.676575
33.61 535.772949
33.62 540.945007
33.63 542.613586
33.64 538.30365
33.65 537.870728
33.66 540.225769
33.67 536.831909
33.68 533.954834
33.69 538.789917
33.70 544.60083
33.71 543.996643
33.72 534.84314
33.73 538.026611
33.74 544.600708
33.75 544.455933
33.76 547.459839
33.77 548.732727
33.78 545.417603
33.79 542.963745
33.80 539.601501
33.81 538.471741
33.82 543.015686
33.83 542.160461
33.84 539.834351
33.85 535.957153
33.86 535.080322
33.87 540.128296
33.88 539.024048
33.89 535.898438
33.90 535.247375
33.91 541.205688
33.92 547.216919
33.93 546.296814
33.94 539.33136
33.95 533.093994
33.96 532.380188
33.97 538.032959
33.98 541.479187
33.99 540.147095
34.00 530.172852
34.01 526.525757
34.02 527.339355
34.03 525.184143
34.04 524.918213
34.05 523.286865
34.06 514.962891
34.07 512.501892
34.08 518.001099
34.09 520.890198
34.10 515.609253
34.11 511.705444
34.12 516.596191
34.13 517.200439
34.14 514.289612
34.15 512.485962
34.16 513.793091
34.17 518.237427
34.18 513.779785
34.19 509.34549
34.20 503.292175
34.21 502.580994
34.22 508.367462
34.23 509.235474
34.24 507.546082
34.25 505.079468
34.26 499.56015
34.27 494.24765
34.28 493.033875
34.29 491.924561
34.30 490.650513
34.31 491.047516
34.32 490.437958
34.33 491.865814
34.34 493.369141
34.35 490.672913
34.36 491.662201
34.37 490.626709
34.38 486.20697
34.39 480.201447
34.40 482.69986
34.41 478.294373
34.42 471.429352
34.43 470.989014
34.44 475.934937
34.45 480.041016
34.46 480.482635
34.47 474.066284
34.48 475.694336
34.49 478.332458
34.50 475.038147
34.51 472.624603
34.52 474.000977
34.53 470.979828
34.54 465.03537
34.55 465.039032
34.56 464.986755
34.57 465.08548
34.58 463.976501
34.59 462.385712
34.60 464.63916
34.61 465.695801
34.62 463.36261
34.63 456.715576
34.64 450.94455
34.65 452.598663
34.66 457.09491
34.67 456.28421
34.68 454.346405
34.69 460.112244
34.70 462.352203
34.71 467.829224
34.72 467.09552
34.73 466.97168
34.74 466.198669
34.75 457.820313
34.76 450.337128
34.77 450.203766
34.78 456.297089
34.79 455.704102
34.80 454.476593
34.81 453.713989
34.82 444.702301
34.83 439.294189
34.84 442.694061
34.85 449.803345
34.86 446.847351
34.87 441.229248
34.88 443.712402
34.89 443.84137
34.90 448.827362
34.91 450.875854
34.92 450.778809
34.93 452.096466
34.94 450.58075
34.95 449.257629
34.96 449.400421
34.97 447.957214
34.98 444.632355
34.99 439.460083
35.00 439.303375
35.01 437.628906
35.02 439.132355
35.03 438.177094
35.04 434.896637
35.05 439.133423
35.06 441.790527
35.07 440.829468
35.08 441.993073
35.09 440.650177
35.10 439.316345
35.11 433.749207
35.12 433.313538
35.13 435.556427
35.14 438.487518
35.15 439.942963
35.16 439.913788
35.17 439.878143
35.18 433.854401
35.19 428.433014
35.20 428.237671
35.21 427.81604
35.22 429.266602
35.23 430.76651
35.24 433.023376
35.25 434.847198
35.26 437.446594
35.27 437.391785
35.28 433.40033
35.29 432.459808
35.30 431.940979
35.31 434.661621
35.32 434.951538
35.33 429.7659
35.34 425.260162
35.35 420.964142
35.36 419.47818
35.37 424.199005
35.38 422.600922
35.39 421.647766
35.40 419.32489
35.41 415.569092
35.42 422.45932
35.43 424.666382
35.44 419.354462
35.45 419.554993
35.46 420.06192
35.47 423.088867
35.48 423.81601
35.49 418.538391
35.50 422.290955
35.51 427.861359
35.52 423.920746
35.53 417.242188
35.54 420.041107
35.55 425.166718
35.56 423.729401
35.57 422.918427
35.58 423.340149
35.59 425.722839
35.60 422.679871
35.61 417.549042
35.62 416.328461
35.63 410.092682
35.64 405.665619
35.65 413.334015
35.66 418.46991
35.67 420.797943
35.68 421.435822
35.69 417.972504
35.70 416.058075
35.71 414.982025
35.72 408.415161
35.73 404.685944
35.74 408.670319
35.75 416.285583
35.76 421.577545
35.77 419.076416
35.78 418.489777
35.79 412.763367
35.80 407.856262
35.81 408.24649
35.82 409.888428
35.83 410.271912
35.84 413.397064
35.85 413.981262
35.86 413.113159
35.87 417.097168
35.88 418.510193
35.89 413.645569
35.90 410.634705
35.91 407.080292
35.92 401.234894
35.93 402.409424
35.94 408.611023
35.95 413.590912
35.96 414.02005
35.97 408.830353
35.98 407.048645
35.99 407.134155
36.00 411.862946
36.01 417.377502
36.02 412.567749
36.03 413.414612
36.04 410.985138
36.05 404.067963
36.06 405.710052
36.07 410.299744
36.08 411.406219
36.09 407.445038
36.10 401.653656
36.11 400.735931
36.12 401.898834
36.13 401.268646
36.14 401.428864
36.15 398.733704
36.16 398.584747
36.17 402.610901
36.18 403.804077
36.19 407.326996
36.20 405.685059
36.21 395.876617
36.22 397.17865
36.23 403.531555
36.24 402.325562
36.25 397.036102
36.26 397.919586
36.27 403.000305
36.28 401.167542
36.29 402.652466
36.30 403.073151
36.31 398.118469
36.32 394.59848
36.33 390.96344
36.34 389.6521
36.35 391.470032
36.36 396.606781
36.37 395.727875
36.38 395.565613
36.39 395.273926
36.40 394.888214
36.41 398.219696
36.42 402.527008
36.43 397.029602
36.44 388.180908
36.45 384.92807
36.46 382.53067
36.47 383.061584
36.48 384.888641
36.49 388.611359
36.50 399.754272
36.51 401.820465
36.52 399.734344
36.53 397.807556
36.54 385.879913
36.55 377.155304
36.56 378.706177
36.57 387.856628
36.58 390.677032
36.59 384.537872
36.60 383.561493
36.61 392.207092
36.62 394.103668
36.63 393.446075
36.64 394.997498
36.65 391.837189
36.66 387.753418
36.67 387.315186
36.68 387.102936
36.69 385.925903
36.70 389.412018
36.71 389.755768
36.72 390.030792
36.73 394.244415
36.74 396.929047
36.75 398.220337
36.76 395.373474
36.77 390.959167
36.78 385.848297
36.79 379.689301
36.80 376.439331
36.81 378.492676
36.82 381.569977
36.83 387.277191
36.84 388.133362
36.85 380.800354
36.86 383.442963
36.87 385.902771
36.88 383.044586
36.89 381.081482
36.90 378.608612
36.91 382.305328
36.92 383.439362
36.93 381.741028
36.94 384.665527
36.95 385.637146
36.96 381.974792
36.97 384.848267
36.98 385.690155
36.99 384.689392
37.00 382.703369
37.01 379.093903
37.02 377.077942
37.03 378.570984
37.04 378.286377
37.05 377.57724
37.06 377.923859
37.07 378.617737
37.08 380.848907
37.09 376.652405
37.10 376.582489
37.11 376.703918
37.12 373.831055
37.13 370.489502
37.14 375.00116
37.15 377.330444
37.16 375.614105
37.17 372.867615
37.18 372.944153
37.19 375.364594
37.20 378.262878
37.21 375.449005
37.22 374.165894
37.23 380.85434
37.24 380.595062
37.25 379.510223
37.26 380.951202
37.27 373.369934
37.28 373.871246
37.29 375.291351
37.30 367.853973
37.31 368.269531
37.32 369.264374
37.33 362.984253
37.34 362.22995
37.35 365.448242
37.36 370.749817
37.37 375.59375
37.38 377.296661
37.39 374.105621
37.40 374.01239
37.41 375.703308
37.42 376.167145
37.43 379.451752
37.44 380.605835
37.45 379.757507
37.46 375.026276
37.47 370.953705
37.48 369.691254
37.49 369.206604
37.50 370.186737
37.51 365.907135
37.52 366.562164
37.53 366.111725
37.54 363.120758
37.55 366.487793
37.56 366.575104
37.57 365.815247
37.58 361.543488
37.59 358.314301
37.60 360.335663
37.61 357.811005
37.62 357.420837
37.63 358.437042
37.64 357.148315
37.65 362.587158
37.66 367.535034
37.67 365.487061
37.68 367.992035
37.69 366.632599
37.70 366.314362
37.71 365.144836
37.72 360.304657
37.73 360.560486
37.74 363.364349
37.75 362.82608
37.76 358.849365
37.77 358.415771
37.78 356.647644
37.79 354.924438
37.80 354.187714
37.81 352.921387
37.82 357.534058
37.83 365.796661
37.84 364.670074
37.85 356.316376
37.86 357.422241
37.87 358.729645
37.88 356.730438
37.89 358.094757
37.90 359.622986
37.91 358.96109
37.92 363.829468
37.93 360.661713
37.94 352.90744
37.95 352.428497
37.96 353.297211
37.97 356.402832
37.98 357.028961
37.99 355.08194
38.00 352.848907
38.01 345.264587
38.02 342.084991
38.03 340.130493
38.04 337.950836
38.05 338.255554
38.06 342.432983
38.07 344.228088
38.08 348.829559
38.09 350.195343
38.10 348.785339
38.11 347.818634
38.12 347.580353
38.13 351.068085
38.14 347.282227
38.15 345.676453
38.16 349.067505
38.17 347.32428
38.18 347.892944
38.19 350.807007
38.20 347.38327
38.21 340.132111
38.22 343.74762
38.23 345.269989
38.24 340.648132
38.25 342.234833
38.26 344.376221
38.27 346.552643
38.28 346.178833
38.29 346.585449
38.30 347.45755
38.31 340.972748
38.32 342.099976
38.33 351.853668
38.34 350.210358
38.35 348.615936
38.36 349.543365
38.37 351.160248
38.38 358.769226
38.39 359.862396
38.40 352.6185
38.41 345.689667
38.42 347.820465
38.43 352.277008
38.44 352.771973
38.45 350.435974
38.46 347.942169
38.47 346.797699
38.48 345.626617
38.49 340.552002
38.50 340.93692
38.51 343.321167
38.52 346.436066
38.53 347.748199
38.54 340.223785
38.55 340.883057
38.56 341.731354
38.57 345.592255
38.58 348.156189
38.59 339.353455
38.60 337.495636
38.61 336.808838
38.62 339.38736
38.63 344.151611
38.64 342.481445
38.65 346.094208
38.66 347.310303
38.67 345.896301
38.68 345.881134
38.69 345.325775
38.70 346.869385
38.71 342.651672
38.72 335.416595
38.73 339.822144
38.74 346.722076
38.75 348.250977
38.76 346.002045
38.77 337.707672
38.78 341.721252
38.79 348.742279
38.80 349.810455
38.81 343.457245
38.82 341.827606
38.83 345.791382
38.84 343.564117
38.85 342.334869
38.86 342.610443
38.87 344.224976
38.88 341.908539
38.89 336.646515
38.90 340.076538
38.91 338.930542
38.92 333.953796
38.93 331.20517
38.94 332.014557
38.95 335.930054
38.96 339.598328
38.97 342.519562
38.98 337.862457
38.99 340.05899
39.00 342.154633
39.01 335.962494
39.02 336.583954
39.03 336.772095
39.04 340.470703
39.05 342.980011
39.06 341.624023
39.07 334.522888
39.08 333.829132
39.09 339.648956
39.10 336.961639
39.11 329.516541
39.12 328.575012
39.13 334.007965
39.14 339.557343
39.15 338.368073
39.16 334.545471
39.17 332.176666
39.18 329.303345
39.19 330.223969
39.20 335.831085
39.21 340.508484
39.22 335.172455
39.23 335.281494
39.24 341.215271
39.25 337.84848
39.26 332.1651
39.27 333.6297
39.28 336.632813
39.29 340.839691
39.30 339.117371
39.31 335.260712
39.32 333.386108
39.33 330.786041
39.34 332.243652
39.35 335.873718
39.36 339.218994
39.37 335.289734
39.38 334.440948
39.39 344.641571
39.40 351.852814
39.41 351.266754
39.42 344.11203
39.43 335.750153
39.44 329.94574
39.45 332.279694
39.46 340.575043
39.47 341.591644
39.48 338.743805
39.49 336.008881
39.50 334.876892
39.51 336.414154
39.52 339.023071
39.53 340.846985
39.54 338.517609
39.55 335.880798
39.56 337.067627
39.57 340.178406
39.58 339.229309
39.59 338.681763
39.60 337.391357
39.61 337.7388
39.62 336.977264
39.63 330.542542
39.64 327.70929
39.65 325.195557
39.66 329.219788
39.67 332.430969
39.68 331.024811
39.69 329.258392
39.70 322.243774
39.71 323.343567
39.72 323.846222
39.73 330.015045
39.74 340.264923
39.75 335.705231
39.76 333.385864
39.77 335.870667
39.78 337.375854
39.79 336.897858
39.80 337.469543
39.81 340.818939
39.82 339.377258
39.83 335.096832
39.84 333.834961
39.85 335.76535
39.86 333.359558
39.87 333.704407
39.88 336.93399
39.89 335.920471
39.90 337.822296
39.91 337.000336
39.92 331.493622
39.93 331.626038
39.94 334.133392
39.95 331.540466
39.96 325.718353
39.97 323.663055
39.98 326.126587
39.99 330.575897
40.00 332.623383
40.01 332.449066
40.02 329.832062
40.03 331.943573
40.04 338.423309
40.05 337.086823
40.06 331.531006
40.07 328.470337
40.08 333.063873
40.09 335.521759
40.10 338.354156
40.11 336.86145
40.12 332.481018
40.13 330.498383
40.14 330.73175
40.15 326.931427
40.16 326.393829
40.17 327.937286
40.18 325.736481
40.19 325.223389
40.20 328.391235
40.21 331.391602
40.22 328.949249
40.23 325.269531
40.24 326.597687
40.25 329.634979
40.26 331.854919
40.27 330.042908
40.28 329.996124
40.29 331.798126
40.30 324.597839
40.31 322.659027
40.32 326.156769
40.33 324.933441
40.34 328.741943
40.35 330.725403
40.36 329.616699
40.37 329.492065
40.38 328.915619
40.39 328.337616
40.40 326.796295
40.41 329.308716
40.42 334.653046
40.43 333.889404
40.44 329.931122
40.45 333.279022
40.46 334.345062
40.47 332.472351
40.48 328.211792
40.49 329.720642
40.50 334.97226
40.51 331.526947
40.52 328.55954
40.53 321.684143
40.54 317.799683
40.55 325.849365
40.56 331.102692
40.57 328.902771
40.58 325.832611
40.59 325.430939
40.60 322.902588
40.61 323.117889
40.62 325.164459
40.63 327.405579
40.64 326.787628
40.65 326.850494
40.66 326.166382
40.67 326.830597
40.68 325.90976
40.69 323.26059
40.70 328.310577
40.71 332.436981
40.72 328.887909
40.73 329.665863
40.74 332.417084
40.75 331.24881
40.76 327.287598
40.77 327.871063
40.78 333.707733
40.79 332.403656
40.80 330.513245
40.81 330.776001
40.82 329.946716
40.83 332.817871
40.84 331.111664
40.85 329.176208
40.86 326.036072
40.87 326.271057
40.88 329.470093
40.89 327.412262
40.90 324.706543
40.91 324.399994
40.92 328.245544
40.93 334.836578
40.94 337.169067
40.95 335.655182
40.96 334.836914
40.97 336.588745
40.98 332.437714
40.99 326.862549
41.00 327.125824
41.01 325.803528
41.02 329.541748
41.03 332.333557
41.04 332.150696
41.05 332.86499
41.06 325.119202
41.07 321.918365
41.08 324.520142
41.09 326.372589
41.10 325.966522
