!@!!GADDS PLOTSO FILE: Chi integration type
!@!!Title/SampleName: ML_MAPbX3
!@!!User: NREL
!@!!Site: NREL SERF C211; SN 2510
!@!!Frame: 081022_MLProject_000_014.gfrm
!@!!Wavelengths    1.54184   1.54056   1.54439
!@!!Frame angles: 2Theta: 28.000 Omega: 5.000 Phi: 0.000 Chi: 90.000
!@!!Integration range: 2Theta: 10.000 to 41.100  Gamma: -120.400 to -60.400
!@!!Integration method: bin normalized
!@!N
!@!SS
!@!M
!@!L 0.0 0.0 0.0 0.0
!@!XDegrees
!@!YCounts
10.00 243.885712
10.01 242.674622
10.02 229.909576
10.03 222.28566
10.04 217.739426
10.05 224.291351
10.06 241.292877
10.07 248.059067
10.08 242.090591
10.09 233.476456
10.10 232.933456
10.11 228.476425
10.12 218.584351
10.13 223.056412
10.14 224.79213
10.15 222.269257
10.16 224.602158
10.17 222.885834
10.18 221.663666
10.19 222.028778
10.20 224.381775
10.21 235.316879
10.22 239.67691
10.23 234.960739
10.24 232.154617
10.25 237.851974
10.26 247.111206
10.27 244.32254
10.28 237.639832
10.29 243.132217
10.30 239.852066
10.31 234.276337
10.32 232.83522
10.33 228.616211
10.34 223.595444
10.35 225.011978
10.36 218.680252
10.37 209.84021
10.38 215.431015
10.39 223.208664
10.40 221.742783
10.41 227.636124
10.42 231.838165
10.43 223.281662
10.44 229.009705
10.45 240.332794
10.46 244.686676
10.47 243.947083
10.48 244.498596
10.49 249.687881
10.50 240.002426
10.51 231.745346
10.52 237.141571
10.53 246.825958
10.54 253.046967
10.55 248.404739
10.56 236.568954
10.57 227.5327
10.58 231.079346
10.59 237.20195
10.60 229.179398
10.61 227.749985
10.62 244.137039
10.63 254.352142
10.64 257.326385
10.65 255.277908
10.66 256.089355
10.67 251.621033
10.68 248.685013
10.69 255.687958
10.70 247.04892
10.71 234.994202
10.72 237.267975
10.73 242.880417
10.74 240.075531
10.75 234.085068
10.76 233.527481
10.77 236.522476
10.78 234.845154
10.79 243.054337
10.80 251.62178
10.81 244.92598
10.82 243.967468
10.83 237.625565
10.84 233.316727
10.85 239.43071
10.86 240.013412
10.87 240.56987
10.88 239.652161
10.89 237.8022
10.90 250.437744
10.91 255.698837
10.92 243.958847
10.93 239.4384
10.94 237.039581
10.95 240.48735
10.96 244.878418
10.97 245.350388
10.98 247.727371
10.99 250.94838
11.00 247.470657
11.01 249.393951
11.02 254.888794
11.03 252.449203
11.04 248.787628
11.05 248.029175
11.06 249.054657
11.07 245.610321
11.08 238.727814
11.09 240.415161
11.10 244.595978
11.11 248.295853
11.12 254.774963
11.13 249.662308
11.14 242.344269
11.15 240.007339
11.16 239.402084
11.17 242.212814
11.18 247.956207
11.19 250.490707
11.20 253.763565
11.21 250.713852
11.22 246.02417
11.23 246.968704
11.24 253.533127
11.25 260.539185
11.26 254.104782
11.27 252.597183
11.28 249.270844
11.29 248.642792
11.30 256.438202
11.31 256.845062
11.32 254.675079
11.33 246.524124
11.34 250.956207
11.35 261.318787
11.36 263.265991
11.37 268.668884
11.38 261.546936
11.39 253.621231
11.40 251.930984
11.41 252.571136
11.42 257.079895
11.43 255.108215
11.44 248.638428
11.45 250.931427
11.46 257.215973
11.47 258.422668
11.48 266.046875
11.49 263.772888
11.50 253.838226
11.51 260.854431
11.52 264.68219
11.53 252.274841
11.54 243.994797
11.55 249.365036
11.56 259.451508
11.57 261.60434
11.58 259.033752
11.59 253.981964
11.60 255.553345
11.61 261.095856
11.62 265.859863
11.63 273.165253
11.64 271.779297
11.65 273.308228
11.66 270.668488
11.67 264.630127
11.68 260.331268
11.69 259.229736
11.70 256.843292
11.71 265.213287
11.72 267.278076
11.73 262.421112
11.74 266.588165
11.75 274.242828
11.76 274.418915
11.77 269.967712
11.78 265.813812
11.79 265.211731
11.80 265.465973
11.81 270.185577
11.82 266.6409
11.83 259.573517
11.84 255.05423
11.85 251.820648
11.86 254.845779
11.87 260.222656
11.88 263.663788
11.89 263.682159
11.90 270.808502
11.91 275.349121
11.92 280.278259
11.93 281.32428
11.94 274.690308
11.95 276.210327
11.96 281.099854
11.97 269.625
11.98 258.234741
11.99 263.012329
12.00 269.712769
12.01 265.298737
12.02 264.630402
12.03 268.844147
12.04 262.390137
12.05 258.713593
12.06 270.939117
12.07 279.145447
12.08 279.763062
12.09 287.273438
12.10 291.84668
12.11 286.85968
12.12 287.955811
12.13 291.66748
12.14 290.166565
12.15 286.180206
12.16 281.473785
12.17 288.463013
12.18 291.364746
12.19 279.859009
12.20 274.637024
12.21 282.754181
12.22 287.647858
12.23 294.927429
12.24 291.598572
12.25 287.299316
12.26 295.952423
12.27 289.509827
12.28 285.907135
12.29 296.332642
12.30 297.735291
12.31 290.961731
12.32 289.40448
12.33 298.291565
12.34 300.326782
12.35 304.106903
12.36 306.509369
12.37 302.098663
12.38 301.635803
12.39 315.702606
12.40 324.370453
12.41 313.494995
12.42 316.032867
12.43 320.298187
12.44 318.239227
12.45 322.33017
12.46 319.040344
12.47 315.44104
12.48 316.803436
12.49 309.945282
12.50 309.698975
12.51 307.901459
12.52 307.350555
12.53 314.722473
12.54 312.712891
12.55 320.119934
12.56 329.567291
12.57 331.577515
12.58 335.870483
12.59 333.080048
12.60 327.498291
12.61 321.007996
12.62 312.113068
12.63 311.289886
12.64 323.18515
12.65 338.137329
12.66 336.385559
12.67 330.704315
12.68 322.089233
12.69 323.960388
12.70 338.920959
12.71 345.749115
12.72 337.664032
12.73 324.641541
12.74 327.312927
12.75 321.28186
12.76 309.138397
12.77 306.176849
12.78 303.770416
12.79 306.947968
12.80 316.552795
12.81 321.477203
12.82 321.452545
12.83 327.228455
12.84 323.063629
12.85 314.904572
12.86 304.865234
12.87 298.315948
12.88 302.562561
12.89 304.306854
12.90 302.89093
12.91 297.69693
12.92 293.819092
12.93 290.804993
12.94 286.950836
12.95 288.905884
12.96 290.060028
12.97 289.106079
12.98 290.48114
12.99 291.72467
13.00 296.007843
13.01 292.83606
13.02 277.941071
13.03 273.380341
13.04 277.770081
13.05 285.957001
13.06 288.722931
13.07 277.99939
13.08 275.166595
13.09 284.224335
13.10 288.108368
13.11 290.034119
13.12 295.083954
13.13 294.747375
13.14 294.682465
13.15 292.97168
13.16 286.458649
13.17 276.494354
13.18 274.61731
13.19 278.070892
13.20 283.982849
13.21 287.311981
13.22 284.754242
13.23 283.342834
13.24 291.010101
13.25 284.341461
13.26 275.204987
13.27 275.262482
13.28 274.09668
13.29 279.392853
13.30 287.661285
13.31 295.163788
13.32 294.51593
13.33 288.962616
13.34 291.243256
13.35 295.969452
13.36 294.127563
13.37 290.06485
13.38 286.421417
13.39 288.269867
13.40 297.52713
13.41 306.438416
13.42 303.743835
13.43 299.978668
13.44 299.464661
13.45 297.728851
13.46 295.359985
13.47 284.59375
13.48 283.90741
13.49 284.943695
13.50 289.804382
13.51 303.187378
13.52 300.371765
13.53 291.608582
13.54 291.890747
13.55 285.988403
13.56 283.585663
13.57 300.1409
13.58 307.736328
13.59 303.422485
13.60 305.642395
13.61 301.137421
13.62 295.88031
13.63 297.132141
13.64 299.542023
13.65 298.60379
13.66 304.903717
13.67 311.7453
13.68 307.71228
13.69 309.546814
13.70 312.589783
13.71 312.961884
13.72 316.102814
13.73 312.293976
13.74 309.701813
13.75 314.222107
13.76 318.588837
13.77 319.112946
13.78 316.176453
13.79 320.424316
13.80 327.769684
13.81 333.367706
13.82 335.191986
13.83 335.02771
13.84 335.174835
13.85 334.089783
13.86 326.128143
13.87 327.684235
13.88 340.076141
13.89 347.001892
13.90 356.596527
13.91 356.311554
13.92 345.087708
13.93 344.949615
13.94 351.64563
13.95 354.350647
13.96 354.765869
13.97 358.937042
13.98 365.466827
13.99 370.88446
14.00 372.956604
14.01 378.60202
14.02 381.978424
14.03 383.930908
14.04 385.747192
14.05 395.022705
14.06 396.377777
14.07 402.957123
14.08 409.208344
14.09 398.857697
14.10 389.961884
14.11 397.752258
14.12 408.504578
14.13 407.639923
14.14 413.312653
14.15 419.920563
14.16 421.689575
14.17 430.513855
14.18 435.347321
14.19 439.54071
14.20 436.950104
14.21 439.068512
14.22 447.182678
14.23 443.113617
14.24 434.106079
14.25 430.422974
14.26 425.545166
14.27 419.366089
14.28 427.897644
14.29 436.689514
14.30 436.408386
14.31 431.055115
14.32 427.849335
14.33 422.625641
14.34 417.742523
14.35 419.688171
14.36 422.361542
14.37 424.760193
14.38 424.445801
14.39 405.859497
14.40 391.942841
14.41 389.360992
14.42 387.123383
14.43 394.970734
14.44 393.92926
14.45 382.983551
14.46 381.233521
14.47 383.515503
14.48 381.732513
14.49 368.679932
14.50 366.086487
14.51 371.456665
14.52 373.131775
14.53 367.35083
14.54 359.259277
14.55 362.361237
14.56 363.250214
14.57 360.638214
14.58 360.683533
14.59 359.88089
14.60 358.952728
14.61 353.202637
14.62 344.191254
14.63 348.148651
14.64 351.984039
14.65 346.622864
14.66 345.309906
14.67 344.3396
14.68 347.092499
14.69 350.857483
14.70 358.584045
14.71 361.05545
14.72 356.004761
14.73 358.778107
14.74 358.68399
14.75 359.136444
14.76 359.321381
14.77 356.010193
14.78 366.767883
14.79 379.623413
14.80 378.395477
14.81 374.020294
14.82 380.594238
14.83 385.716949
14.84 383.05603
14.85 381.12207
14.86 387.444733
14.87 395.924347
14.88 399.845642
14.89 397.15976
14.90 395.881683
14.91 394.131134
14.92 392.831909
14.93 400.420013
14.94 408.010193
14.95 410.050446
14.96 414.536316
14.97 414.962646
14.98 414.300232
14.99 426.131134
15.00 441.660248
15.01 439.950592
15.02 438.564972
15.03 442.948425
15.04 450.540192
15.05 452.553741
15.06 454.676392
15.07 467.995544
15.08 483.258636
15.09 487.321747
15.10 489.130402
15.11 495.260773
15.12 502.63559
15.13 511.707428
15.14 509.066223
15.15 507.381073
15.16 511.271759
15.17 525.755066
15.18 532.569275
15.19 522.325317
15.20 519.808289
15.21 531.356873
15.22 536.922729
15.23 537.271606
15.24 536.03479
15.25 538.057129
15.26 542.775818
15.27 550.318665
15.28 546.64032
15.29 539.807129
15.30 540.085266
15.31 550.771912
15.32 554.226868
15.33 549.828552
15.34 546.088806
15.35 538.140259
15.36 530.419617
15.37 520.327637
15.38 508.458344
15.39 513.170288
15.40 509.704285
15.41 501.202332
15.42 498.963074
15.43 495.101196
15.44 488.942169
15.45 475.047211
15.46 462.560272
15.47 458.29538
15.48 451.637756
15.49 439.003479
15.50 436.279999
15.51 437.116486
15.52 431.997345
15.53 419.072906
15.54 406.303436
15.55 404.73703
15.56 403.249695
15.57 393.301178
15.58 382.807556
15.59 375.600769
15.60 369.901093
15.61 364.353729
15.62 373.178802
15.63 376.267273
15.64 366.165619
15.65 363.099976
15.66 359.1409
15.67 355.896606
15.68 357.926788
15.69 356.07312
15.70 351.360352
15.71 346.973267
15.72 352.755646
15.73 362.246307
15.74 355.215424
15.75 352.106689
15.76 353.241608
15.77 344.905548
15.78 340.817291
15.79 344.263519
15.80 348.639709
15.81 351.673737
15.82 348.781616
15.83 340.941803
15.84 336.645477
15.85 337.208954
15.86 337.852325
15.87 341.33429
15.88 345.7258
15.89 347.594086
15.90 350.337097
15.91 346.429047
15.92 342.504608
15.93 342.928802
15.94 345.484802
15.95 346.252472
15.96 341.233521
15.97 342.739655
15.98 339.310425
15.99 328.159454
16.00 327.365082
16.01 338.067505
16.02 339.115479
16.03 340.177551
16.04 341.660187
16.05 344.254211
16.06 348.194427
16.07 348.921906
16.08 345.60376
16.09 342.057709
16.10 346.401428
16.11 344.731506
16.12 343.835449
16.13 337.035889
16.14 332.208282
16.15 337.621246
16.16 336.04425
16.17 333.340729
16.18 337.86618
16.19 340.843445
16.20 340.026855
16.21 335.779297
16.22 329.213318
16.23 337.583008
16.24 347.91391
16.25 347.574615
16.26 346.259918
16.27 338.479431
16.28 343.446533
16.29 348.882751
16.30 345.276703
16.31 348.031799
16.32 350.321899
16.33 353.697266
16.34 346.607422
16.35 336.920502
16.36 333.843872
16.37 337.707581
16.38 347.83963
16.39 355.496887
16.40 351.517151
16.41 345.536987
16.42 346.992004
16.43 347.465576
16.44 346.629425
16.45 346.002014
16.46 338.862244
16.47 334.571869
16.48 339.990112
16.49 345.644012
16.50 346.048096
16.51 348.024109
16.52 348.028412
16.53 341.816071
16.54 332.779175
16.55 328.656281
16.56 330.573578
16.57 332.025177
16.58 336.410461
16.59 341.721344
16.60 343.014557
16.61 335.472778
16.62 335.59729
16.63 339.757416
16.64 349.224915
16.65 359.496765
16.66 359.013977
16.67 350.06723
16.68 345.969574
16.69 348.417816
16.70 350.332336
16.71 343.685333
16.72 345.293854
16.73 350.451508
16.74 347.866302
16.75 339.752106
16.76 337.495728
16.77 349.190063
16.78 355.36557
16.79 355.124481
16.80 360.707123
16.81 362.854767
16.82 362.148163
16.83 358.718506
16.84 349.913727
16.85 352.355957
16.86 365.310242
16.87 367.629486
16.88 366.786926
16.89 371.79715
16.90 363.293091
16.91 350.399658
16.92 348.928528
16.93 354.059509
16.94 352.417603
16.95 352.007294
16.96 355.689209
16.97 353.476929
16.98 359.067078
16.99 363.692871
17.00 361.737274
17.01 365.327454
17.02 365.055115
17.03 362.615723
17.04 359.97879
17.05 364.900757
17.06 367.493805
17.07 362.102356
17.08 359.812012
17.09 360.243835
17.10 353.552856
17.11 353.387695
17.12 364.181793
17.13 361.760742
17.14 356.081451
17.15 355.35611
17.16 351.406372
17.17 356.533417
17.18 365.525238
17.19 367.473633
17.20 366.377258
17.21 366.574554
17.22 364.334076
17.23 361.172089
17.24 366.490906
17.25 372.905823
17.26 369.342133
17.27 373.314758
17.28 376.04834
17.29 366.507904
17.30 364.570709
17.31 369.148315
17.32 367.293304
17.33 364.861694
17.34 368.319031
17.35 369.724884
17.36 366.312042
17.37 367.265991
17.38 365.888031
17.39 369.068237
17.40 369.64209
17.41 363.13446
17.42 360.955994
17.43 366.860657
17.44 373.376709
17.45 377.472107
17.46 375.083496
17.47 372.026154
17.48 369.29126
17.49 368.059692
17.50 364.600708
17.51 374.0784
17.52 380.677429
17.53 367.604156
17.54 365.198273
17.55 374.75473
17.56 383.580688
17.57 386.961304
17.58 390.033508
17.59 392.205261
17.60 385.783508
17.61 381.371399
17.62 384.453888
17.63 380.789154
17.64 380.740723
17.65 381.994293
17.66 385.882172
17.67 387.087128
17.68 380.079071
17.69 378.154449
17.70 373.573029
17.71 378.691895
17.72 381.940369
17.73 380.617828
17.74 386.884705
17.75 384.5867
17.76 373.168976
17.77 375.283661
17.78 383.443665
17.79 393.200165
17.80 396.532257
17.81 394.091125
17.82 395.057312
17.83 389.722656
17.84 382.636292
17.85 375.585632
17.86 381.596069
17.87 384.58432
17.88 379.366333
17.89 384.011932
17.90 391.797058
17.91 392.276825
17.92 387.896515
17.93 383.533936
17.94 382.226501
17.95 378.939301
17.96 373.88382
17.97 380.812225
17.98 382.564453
17.99 384.706635
18.00 393.406891
18.01 398.835785
18.02 404.569031
18.03 406.783478
18.04 403.067505
18.05 396.227509
18.06 394.749603
18.07 392.197784
18.08 388.881775
18.09 385.901764
18.10 381.680023
18.11 380.255188
18.12 391.199371
18.13 402.530548
18.14 406.860474
18.15 396.624634
18.16 386.032745
18.17 395.262665
18.18 400.266235
18.19 394.238678
18.20 394.463806
18.21 397.371277
18.22 393.340363
18.23 396.434174
18.24 390.775116
18.25 391.757935
18.26 399.154297
18.27 398.17099
18.28 397.103485
18.29 396.940948
18.30 400.197693
18.31 404.061005
18.32 402.099731
18.33 403.393585
18.34 408.522156
18.35 407.821716
18.36 411.319702
18.37 413.88446
18.38 414.574524
18.39 409.386902
18.40 395.635315
18.41 398.453705
18.42 410.707947
18.43 410.258301
18.44 412.427368
18.45 410.413391
18.46 403.49231
18.47 406.489502
18.48 420.812286
18.49 430.162659
18.50 427.894928
18.51 427.781128
18.52 427.350128
18.53 420.987579
18.54 411.655487
18.55 411.395569
18.56 411.730774
18.57 413.969666
18.58 416.759094
18.59 421.917297
18.60 421.254578
18.61 419.076782
18.62 426.40802
18.63 426.585205
18.64 419.571106
18.65 415.729004
18.66 414.471252
18.67 408.480194
18.68 409.14212
18.69 416.450409
18.70 417.172882
18.71 417.689606
18.72 424.644958
18.73 428.006134
18.74 422.115143
18.75 415.791138
18.76 419.763428
18.77 421.803528
18.78 425.216492
18.79 429.104218
18.80 430.230103
18.81 427.485809
18.82 424.142761
18.83 421.423157
18.84 419.088043
18.85 418.767792
18.86 416.125671
18.87 419.444153
18.88 423.167755
18.89 428.126495
18.90 435.030701
18.91 432.720093
18.92 430.697693
18.93 428.06662
18.94 422.583374
18.95 421.175446
18.96 429.071808
18.97 441.118958
18.98 441.95697
18.99 440.527588
19.00 442.298462
19.01 437.432953
19.02 436.536804
19.03 435.936218
19.04 433.466003
19.05 433.181061
19.06 434.202728
19.07 426.538849
19.08 415.88269
19.09 425.078735
19.10 433.410919
19.11 441.539215
19.12 445.137756
19.13 436.397675
19.14 434.560638
19.15 444.481476
19.16 446.941498
19.17 441.732544
19.18 439.729675
19.19 439.048035
19.20 437.031128
19.21 438.681366
19.22 448.452423
19.23 448.617767
19.24 437.910187
19.25 438.533325
19.26 441.157928
19.27 439.914093
19.28 443.833038
19.29 446.066315
19.30 446.140167
19.31 447.740662
19.32 446.416168
19.33 443.403412
19.34 445.139465
19.35 451.253632
19.36 451.994781
19.37 448.203156
19.38 456.978851
19.39 465.634949
19.40 459.319244
19.41 453.699219
19.42 459.491943
19.43 456.967743
19.44 455.395752
19.45 459.816833
19.46 455.559418
19.47 455.271423
19.48 459.526428
19.49 454.083832
19.50 448.44397
19.51 448.823212
19.52 446.768982
19.53 449.558868
19.54 453.794312
19.55 459.696106
19.56 465.978546
19.57 461.900146
19.58 456.330139
19.59 456.241547
19.60 457.16098
19.61 457.925568
19.62 461.422272
19.63 458.586456
19.64 454.597229
19.65 458.493622
19.66 463.3255
19.67 471.48465
19.68 477.033081
19.69 472.368774
19.70 465.528595
19.71 459.704468
19.72 462.947906
19.73 466.68512
19.74 464.109711
19.75 464.216675
19.76 463.995239
19.77 466.23175
19.78 472.017731
19.79 477.106018
19.80 478.770264
19.81 478.845276
19.82 479.416901
19.83 471.504852
19.84 467.502472
19.85 468.676758
19.86 472.302979
19.87 482.033264
19.88 485.653595
19.89 486.205505
19.90 482.68631
19.91 477.719757
19.92 483.223877
19.93 487.51593
19.94 480.326538
19.95 477.328217
19.96 485.497528
19.97 495.586853
19.98 494.079346
19.99 486.444702
20.00 483.713196
20.01 476.402649
20.02 474.686188
20.03 474.150482
20.04 468.302185
20.05 475.093964
20.06 484.542847
20.07 490.45282
20.08 488.439789
20.09 487.677429
20.10 485.900452
20.11 486.56781
20.12 480.261414
20.13 481.187927
20.14 494.232483
20.15 494.151031
20.16 493.443237
20.17 504.029785
20.18 506.054932
20.19 505.70871
20.20 500.110474
20.21 490.757782
20.22 484.876282
20.23 487.983917
20.24 493.99469
20.25 493.855316
20.26 496.723999
20.27 507.512268
20.28 509.853119
20.29 503.750061
20.30 501.373657
20.31 496.264343
20.32 496.879974
20.33 502.030121
20.34 498.125
20.35 493.585449
20.36 497.758942
20.37 509.453888
20.38 512.802063
20.39 505.103729
20.40 508.66684
20.41 512.523376
20.42 515.255859
20.43 511.489319
20.44 506.031525
20.45 505.924957
20.46 508.40799
20.47 513.68103
20.48 521.596252
20.49 516.364075
20.50 510.446075
20.51 513.545898
20.52 512.375244
20.53 502.972595
20.54 496.56308
20.55 503.646393
20.56 510.596222
20.57 511.335266
20.58 508.815765
20.59 511.457245
20.60 514.035339
20.61 511.778381
20.62 510.244202
20.63 510.326294
20.64 511.285736
20.65 512.893005
20.66 510.120331
20.67 507.79599
20.68 512.236511
20.69 515.340759
20.70 516.498901
20.71 514.90918
20.72 513.930908
20.73 509.415131
20.74 502.671936
20.75 507.261505
20.76 513.523621
20.77 520.745911
20.78 526.675903
20.79 522.88562
20.80 523.160889
20.81 523.547424
20.82 526.810059
20.83 528.62854
20.84 531.919739
20.85 527.722168
20.86 517.127991
20.87 515.053162
20.88 508.491974
20.89 504.070862
20.90 507.684692
20.91 507.271149
20.92 511.163971
20.93 520.40387
20.94 525.513062
20.95 524.173096
20.96 525.422729
20.97 533.82666
20.98 544.027283
20.99 540.659546
21.00 534.875305
21.01 529.717529
21.02 530.323792
21.03 530.106628
21.04 521.215088
21.05 526.015076
21.06 538.277893
21.07 530.091797
21.08 530.33728
21.09 534.009949
21.10 539.437683
21.11 541.763367
21.12 533.54248
21.13 532.776001
21.14 534.60083
21.15 534.292908
21.16 538.950623
21.17 543.772644
21.18 541.999512
21.19 543.737244
21.20 549.376709
21.21 545.941162
21.22 540.291199
21.23 538.865906
21.24 542.815308
21.25 556.437683
21.26 568.791992
21.27 562.113464
21.28 558.246765
21.29 558.333313
21.30 554.799438
21.31 557.002502
21.32 555.634949
21.33 556.725098
21.34 566.390686
21.35 568.157043
21.36 572.933716
21.37 576.171143
21.38 570.811279
21.39 571.460266
21.40 574.927734
21.41 576.032654
21.42 575.799133
21.43 575.241333
21.44 573.992432
21.45 576.087341
21.46 577.746887
21.47 573.372986
21.48 565.629089
21.49 565.207581
21.50 572.71991
21.51 575.617249
21.52 572.620728
21.53 576.435364
21.54 583.485718
21.55 585.321167
21.56 585.956055
21.57 586.841553
21.58 581.478943
21.59 581.824097
21.60 592.158142
21.61 596.511169
21.62 597.895447
21.63 595.483887
21.64 593.907043
21.65 595.272278
21.66 596.717163
21.67 600.870422
21.68 598.13446
21.69 584.851807
21.70 580.671814
21.71 582.910095
21.72 587.025269
21.73 595.016785
21.74 591.153015
21.75 586.584167
21.76 583.822144
21.77 588.328125
21.78 594.32312
21.79 602.422668
21.80 609.181335
21.81 612.952026
21.82 613.476624
21.83 609.343201
21.84 605.396973
21.85 605.231201
21.86 601.950256
21.87 593.521667
21.88 597.159241
21.89 595.969788
21.90 595.793091
21.91 592.159851
21.92 592.130676
21.93 588.069458
21.94 584.188354
21.95 579.528748
21.96 586.754211
21.97 597.592896
21.98 598.074402
21.99 595.144287
22.00 593.714966
22.01 601.079834
22.02 606.346863
22.03 604.837524
22.04 601.759277
22.05 596.759583
22.06 589.129822
22.07 584.854004
22.08 593.058533
22.09 593.871155
22.10 581.735168
22.11 582.059814
22.12 587.00238
22.13 594.11853
22.14 597.936768
22.15 589.049622
22.16 593.600708
22.17 599.750366
22.18 598.967346
22.19 591.157837
22.20 585.503296
22.21 588.054993
22.22 581.713257
22.23 577.763184
22.24 579.861877
22.25 584.197632
22.26 585.237122
22.27 586.722107
22.28 587.640869
22.29 590.701599
22.30 594.551086
22.31 599.347778
22.32 602.992493
22.33 606.692017
22.34 604.270691
22.35 595.146423
22.36 590.333374
22.37 604.71759
22.38 607.767761
22.39 599.195618
22.40 588.062378
22.41 587.613586
22.42 598.441284
22.43 599.138123
22.44 591.987366
22.45 589.740662
22.46 590.878967
22.47 603.088684
22.48 610.307312
22.49 600.624207
22.50 595.064209
22.51 597.070801
22.52 597.045288
22.53 592.827698
22.54 594.642761
22.55 604.463501
22.56 603.577026
22.57 603.134766
22.58 600.667847
22.59 598.666321
22.60 602.620178
22.61 602.671387
22.62 599.980408
22.63 606.929077
22.64 612.74762
22.65 608.89978
22.66 600.838013
22.67 601.62677
22.68 598.746277
22.69 593.716431
22.70 595.946228
22.71 601.088196
22.72 600.469177
22.73 600.573425
22.74 606.624207
22.75 612.581299
22.76 619.830017
22.77 620.032959
22.78 608.877991
22.79 603.735718
22.80 609.842346
22.81 613.150635
22.82 615.912598
22.83 619.454651
22.84 626.531311
22.85 625.125793
22.86 626.813965
22.87 626.349609
22.88 632.511658
22.89 636.151062
22.90 626.468628
22.91 616.209534
22.92 611.148682
22.93 614.381714
22.94 617.22699
22.95 622.062927
22.96 624.911316
22.97 622.23584
22.98 620.373718
22.99 621.569214
23.00 630.670837
23.01 626.104187
23.02 611.453857
23.03 604.222961
23.04 608.710388
23.05 609.677246
23.06 615.202881
23.07 619.39801
23.08 620.105042
23.09 625.812073
23.10 634.026306
23.11 633.586121
23.12 634.006348
23.13 628.962036
23.14 617.580505
23.15 618.46051
23.16 628.627136
23.17 630.885132
23.18 626.771423
23.19 623.025574
23.20 631.754578
23.21 630.568787
23.22 624.564941
23.23 628.407471
23.24 637.048523
23.25 637.595459
23.26 630.129761
23.27 616.978271
23.28 616.509155
23.29 624.876465
23.30 627.819763
23.31 630.532654
23.32 629.542419
23.33 620.49231
23.34 624.737122
23.35 632.142151
23.36 636.34613
23.37 643.440247
23.38 641.577637
23.39 640.46637
23.40 632.186218
23.41 623.168396
23.42 623.765747
23.43 627.661133
23.44 636.795288
23.45 630.313721
23.46 615.794556
23.47 616.230408
23.48 625.05603
23.49 632.094299
23.50 627.818604
23.51 621.00293
23.52 615.053833
23.53 617.845703
23.54 611.265259
23.55 608.334717
23.56 618.314209
23.57 623.509644
23.58 623.123047
23.59 627.088196
23.60 628.915161
23.61 622.173706
23.62 614.40155
23.63 614.9104
23.64 627.453735
23.65 626.561157
23.66 622.760986
23.67 634.951599
23.68 648.97229
23.69 644.883057
23.70 626.94519
23.71 617.933228
23.72 626.774109
23.73 630.0755
23.74 632.494995
23.75 637.383301
23.76 642.355896
23.77 637.439026
23.78 629.907898
23.79 627.230774
23.80 628.072144
23.81 633.699707
23.82 638.407166
23.83 632.762817
23.84 627.209534
23.85 630.205688
23.86 630.317932
23.87 631.481873
23.88 633.235657
23.89 635.843079
23.90 625.619141
23.91 618.939209
23.92 618.218323
23.93 620.879883
23.94 623.588562
23.95 622.5354
23.96 637.658875
23.97 644.801697
23.98 634.518555
23.99 637.923706
24.00 640.930725
24.01 633.962219
24.02 638.01416
24.03 633.627991
24.04 628.775757
24.05 637.632629
24.06 643.117004
24.07 640.600769
24.08 645.278503
24.09 646.733032
24.10 647.955688
24.11 649.254089
24.12 647.924805
24.13 648.946716
24.14 646.548767
24.15 643.929871
24.16 642.995789
24.17 642.359924
24.18 641.858459
24.19 634.941956
24.20 630.510681
24.21 638.222046
24.22 645.191345
24.23 642.270447
24.24 643.058472
24.25 648.112
24.26 647.249695
24.27 639.659363
24.28 638.442932
24.29 633.445068
24.30 630.463501
24.31 640.967346
24.32 651.28363
24.33 646.512817
24.34 645.400635
24.35 635.988037
24.36 627.71814
24.37 636.230896
24.38 643.712158
24.39 645.130188
24.40 650.963684
24.41 650.01178
24.42 647.738708
24.43 647.311035
24.44 641.414673
24.45 634.395264
24.46 624.030518
24.47 621.472717
24.48 634.405151
24.49 637.809387
24.50 643.428223
24.51 649.160034
24.52 644.571045
24.53 638.119629
24.54 638.614502
24.55 629.176697
24.56 626.887268
24.57 635.583557
24.58 637.521545
24.59 639.535583
24.60 640.220337
24.61 631.110474
24.62 631.85498
24.63 635.784485
24.64 640.733154
24.65 641.751282
24.66 642.781799
24.67 646.35144
24.68 650.141785
24.69 651.531616
24.70 656.549988
24.71 658.729248
24.72 655.585632
24.73 655.474121
24.74 649.637878
24.75 638.525269
24.76 633.000305
24.77 639.770569
24.78 651.953369
24.79 651.89325
24.80 650.374329
24.81 644.470032
24.82 639.746704
24.83 649.84198
24.84 654.817444
24.85 659.002258
24.86 657.617981
24.87 649.581848
24.88 653.52832
24.89 654.065857
24.90 652.202148
24.91 653.696472
24.92 651.3974
24.93 647.53772
24.94 646.560547
24.95 650.800232
24.96 651.307129
24.97 649.00946
24.98 639.849609
24.99 639.118469
25.00 651.562256
25.01 655.006836
25.02 648.252625
25.03 647.373779
25.04 651.036621
25.05 652.414307
25.06 654.412842
25.07 654.020874
25.08 646.235779
25.09 646.945374
25.10 651.486877
25.11 652.676575
25.12 645.414612
25.13 641.648987
25.14 639.558167
25.15 647.55481
25.16 654.444336
25.17 657.939758
25.18 655.549011
25.19 651.3172
25.20 652.990967
25.21 652.726746
25.22 650.300049
25.23 645.205383
25.24 645.920227
25.25 650.342041
25.26 652.835083
25.27 649.203369
25.28 648.782837
25.29 654.701599
25.30 657.564819
25.31 656.470886
25.32 652.016907
25.33 647.243286
25.34 641.154785
25.35 635.194336
25.36 636.87854
25.37 639.75647
25.38 642.158691
25.39 652.771057
25.40 657.55835
25.41 654.612732
25.42 658.642761
25.43 665.303833
25.44 665.879517
25.45 667.100342
25.46 659.263794
25.47 651.840027
25.48 646.0672
25.49 639.965088
25.50 633.55365
25.51 640.357605
25.52 649.701843
25.53 648.208557
25.54 651.254578
25.55 649.341919
25.56 643.180786
25.57 647.776245
25.58 654.434265
25.59 657.73999
25.60 654.913086
25.61 655.387329
25.62 655.634644
25.63 645.677124
25.64 641.598083
25.65 643.083557
25.66 650.090027
25.67 656.937805
25.68 658.814331
25.69 661.74823
25.70 663.631531
25.71 660.036743
25.72 661.034058
25.73 659.910217
25.74 652.503113
25.75 646.160156
25.76 639.392822
25.77 637.022766
25.78 643.197388
25.79 648.236511
25.80 644.224915
25.81 645.061401
25.82 646.393005
25.83 655.870178
25.84 662.610901
25.85 657.133301
25.86 649.748962
25.87 644.157227
25.88 645.455139
25.89 649.982544
25.90 655.869568
25.91 656.434021
25.92 656.039185
25.93 649.035217
25.94 647.620239
25.95 648.999329
25.96 643.718079
25.97 637.969604
25.98 644.354919
25.99 644.896118
26.00 646.454895
26.01 647.093079
26.02 650.624878
26.03 656.441833
26.04 656.454102
26.05 659.689148
26.06 659.695251
26.07 655.024231
26.08 656.938721
26.09 662.572815
26.10 661.586426
26.11 657.535828
26.12 650.381775
26.13 652.774292
26.14 658.902405
26.15 653.991028
26.16 650.805786
26.17 654.217041
26.18 655.176147
26.19 652.124878
26.20 648.952271
26.21 654.478638
26.22 652.412292
26.23 648.577759
26.24 649.882141
26.25 649.327942
26.26 650.595032
26.27 644.859436
26.28 645.44165
26.29 649.524231
26.30 649.810791
26.31 641.380127
26.32 633.711609
26.33 638.00061
26.34 643.782227
26.35 649.020508
26.36 650.980103
26.37 646.665466
26.38 645.370789
26.39 645.959595
26.40 645.108826
26.41 640.214966
26.42 641.133606
26.43 641.587585
26.44 641.398438
26.45 641.434143
26.46 638.050842
26.47 639.149109
26.48 651.044312
26.49 651.557617
26.50 644.269165
26.51 640.259888
26.52 636.858582
26.53 626.621155
26.54 625.454712
26.55 631.082581
26.56 633.870728
26.57 636.888062
26.58 639.663696
26.59 646.173462
26.60 654.724731
26.61 655.589294
26.62 649.898804
26.63 646.738586
26.64 635.576782
26.65 625.17926
26.66 628.515503
26.67 637.687317
26.68 631.789917
26.69 631.804016
26.70 633.862305
26.71 626.520996
26.72 621.227295
26.73 631.739136
26.74 640.514954
26.75 639.246643
26.76 639.773071
26.77 646.026184
26.78 646.220703
26.79 646.43866
26.80 644.630676
26.81 639.144592
26.82 641.776917
26.83 638.516602
26.84 639.163757
26.85 640.572144
26.86 634.910889
26.87 640.169861
26.88 646.292908
26.89 646.133972
26.90 643.519287
26.91 641.604187
26.92 637.986267
26.93 635.40741
26.94 638.577759
26.95 642.635986
26.96 643.375366
26.97 642.935242
26.98 639.387024
26.99 631.501221
27.00 626.69519
27.01 625.773682
27.02 637.064331
27.03 643.257813
27.04 642.968018
27.05 647.195068
27.06 638.794067
27.07 629.110535
27.08 619.588257
27.09 617.500305
27.10 628.766602
27.11 637.141663
27.12 641.744934
27.13 640.658447
27.14 644.095764
27.15 644.007324
27.16 635.762268
27.17 630.95813
27.18 634.174011
27.19 637.388916
27.20 641.162598
27.21 646.886536
27.22 644.460205
27.23 636.168335
27.24 636.205444
27.25 633.31311
27.26 631.08728
27.27 633.253113
27.28 629.925232
27.29 625.490906
27.30 626.183167
27.31 629.752747
27.32 625.058105
27.33 615.467407
27.34 618.777161
27.35 632.938538
27.36 633.954041
27.37 630.972717
27.38 626.82251
27.39 623.025635
27.40 623.976013
27.41 624.640991
27.42 622.456299
27.43 620.385315
27.44 621.426636
27.45 623.916565
27.46 627.085083
27.47 627.322449
27.48 630.635864
27.49 633.388672
27.50 629.284424
27.51 634.334778
27.52 640.757568
27.53 638.640198
27.54 635.803406
27.55 635.185669
27.56 633.032227
27.57 638.222961
27.58 647.788635
27.59 647.244934
27.60 646.423645
27.61 637.354858
27.62 627.200806
27.63 622.836365
27.64 621.483154
27.65 627.180054
27.66 638.544067
27.67 641.976746
27.68 640.09613
27.69 643.048035
27.70 640.399231
27.71 646.089783
27.72 654.021484
27.73 647.134521
27.74 644.014587
27.75 640.824341
27.76 630.892029
27.77 626.721008
27.78 623.251038
27.79 619.408813
27.80 617.413757
27.81 623.647705
27.82 628.576294
27.83 628.190918
27.84 625.296875
27.85 618.581665
27.86 606.105164
27.87 602.873718
27.88 613.223877
27.89 624.101746
27.90 623.396301
27.91 622.669067
27.92 624.930481
27.93 619.228333
27.94 609.741699
27.95 608.886597
27.96 615.837402
27.97 632.935974
27.98 644.225647
27.99 642.868958
28.00 632.378418
28.01 629.662842
28.02 633.604858
28.03 632.623108
28.04 633.68396
28.05 631.328491
28.06 626.932556
28.07 628.717163
28.08 624.130188
28.09 617.914368
28.10 613.520081
28.11 616.394348
28.12 623.891724
28.13 634.165283
28.14 636.907837
28.15 636.513672
28.16 638.811462
28.17 643.747437
28.18 643.316467
28.19 642.592834
28.20 637.934631
28.21 631.427551
28.22 627.346863
28.23 631.574951
28.24 637.18689
28.25 639.365784
28.26 631.685669
28.27 623.348328
28.28 625.052856
28.29 632.133789
28.30 632.774109
28.31 629.092041
28.32 630.596436
28.33 645.176331
28.34 660.150391
28.35 657.1427
28.36 650.481873
28.37 643.934631
28.38 634.881531
28.39 636.900391
28.40 635.355713
28.41 639.104431
28.42 650.336487
28.43 646.051697
28.44 645.340942
28.45 646.161438
28.46 641.015259
28.47 644.218384
28.48 650.100952
28.49 647.552368
28.50 645.09491
28.51 646.050293
28.52 642.91272
28.53 644.000793
28.54 650.968872
28.55 658.202759
28.56 663.457275
28.57 663.405029
28.58 665.917358
28.59 666.080688
28.60 669.47937
28.61 677.259888
28.62 680.116028
28.63 682.459167
28.64 689.215759
28.65 690.5896
28.66 694.058228
28.67 691.057251
28.68 687.636658
28.69 689.665405
28.70 688.7771
28.71 690.236572
28.72 690.424438
28.73 683.788086
28.74 677.395203
28.75 677.762634
28.76 687.701233
28.77 683.837769
28.78 678.652527
28.79 680.937561
28.80 682.488708
28.81 675.147217
28.82 671.563232
28.83 672.831177
28.84 677.052307
28.85 673.070984
28.86 670.741821
28.87 667.218201
28.88 659.69989
28.89 657.028564
28.90 654.90387
28.91 656.350281
28.92 652.839233
28.93 651.445679
28.94 656.899597
28.95 660.637146
28.96 660.754883
28.97 650.537781
28.98 639.486511
28.99 641.268982
29.00 646.056152
29.01 655.490601
29.02 659.52063
29.03 652.54425
29.04 646.78241
29.05 637.981506
29.06 635.165405
29.07 641.075134
29.08 646.74292
29.09 651.900574
29.10 646.362488
29.11 638.188049
29.12 635.595276
29.13 635.866272
29.14 630.284668
29.15 623.813599
29.16 622.522522
29.17 622.116577
29.18 623.327515
29.19 622.402649
29.20 619.312134
29.21 626.119385
29.22 631.68335
29.23 622.828613
29.24 623.089783
29.25 629.220886
29.26 626.868225
29.27 621.524414
29.28 617.233887
29.29 616.487854
29.30 618.604126
29.31 620.188416
29.32 629.331177
29.33 626.009521
29.34 616.580139
29.35 618.30658
29.36 613.254944
29.37 606.031311
29.38 612.632813
29.39 612.336914
29.40 612.236145
29.41 618.604858
29.42 621.931946
29.43 620.696411
29.44 621.779419
29.45 622.790161
29.46 625.559937
29.47 623.870361
29.48 615.144104
29.49 610.771362
29.50 613.025391
29.51 615.089294
29.52 615.359314
29.53 611.832764
29.54 609.88031
29.55 613.61853
29.56 615.455078
29.57 610.616882
29.58 607.639343
29.59 607.481567
29.60 611.449158
29.61 611.242249
29.62 608.645569
29.63 611.661072
29.64 613.646667
29.65 611.077454
29.66 616.817688
29.67 624.374634
29.68 622.001953
29.69 615.389771
29.70 603.446838
29.71 596.215454
29.72 590.923157
29.73 587.596191
29.74 589.792664
29.75 595.302856
29.76 599.61438
29.77 605.011353
29.78 610.753723
29.79 611.090881
29.80 606.66272
29.81 607.709961
29.82 611.126953
29.83 605.388428
29.84 596.213928
29.85 593.977234
29.86 595.177429
29.87 595.389709
29.88 595.570007
29.89 601.968994
29.90 609.311157
29.91 611.527771
29.92 606.59729
29.93 601.345825
29.94 603.283752
29.95 599.309509
29.96 597.059448
29.97 597.203979
29.98 597.662781
29.99 597.210449
30.00 597.373901
30.01 600.997742
30.02 604.24054
30.03 600.329956
30.04 599.889954
30.05 598.315735
30.06 594.318726
30.07 592.444641
30.08 600.18335
30.09 606.735535
30.10 601.111572
30.11 606.569458
30.12 604.004517
30.13 593.455322
30.14 595.252747
30.15 601.026062
30.16 614.281799
30.17 619.25
30.18 612.728577
30.19 602.463318
30.20 595.726929
30.21 598.42572
30.22 604.842163
30.23 603.154053
30.24 594.45575
30.25 590.881348
30.26 596.542664
30.27 599.346069
30.28 603.690674
30.29 607.003479
30.30 609.71051
30.31 610.076233
30.32 612.390808
30.33 615.345215
30.34 614.462402
30.35 612.230164
30.36 609.288818
30.37 612.189026
30.38 607.1297
30.39 602.054871
30.40 604.374756
30.41 608.47937
30.42 605.504333
30.43 594.124207
30.44 587.521057
30.45 592.497192
30.46 601.475281
30.47 607.589661
30.48 611.534851
30.49 607.418579
30.50 611.364319
30.51 620.493103
30.52 625.035645
30.53 629.242798
30.54 631.408386
30.55 627.47168
30.56 627.380981
30.57 622.623901
30.58 622.116638
30.59 629.955566
30.60 634.044556
30.61 637.999695
30.62 641.300903
30.63 635.905029
30.64 631.430054
30.65 625.86731
30.66 621.903564
30.67 616.882813
30.68 615.834534
30.69 629.627563
30.70 638.370178
30.71 638.233032
30.72 639.508728
30.73 641.097046
30.74 640.053284
30.75 645.345459
30.76 645.201904
30.77 653.173035
30.78 659.501953
30.79 660.976257
30.80 658.237122
30.81 659.84137
30.82 656.884583
30.83 652.442322
30.84 659.029297
30.85 659.004944
30.86 661.934509
30.87 669.167908
30.88 670.946167
30.89 662.9823
30.90 653.15155
30.91 650.514954
30.92 650.67572
30.93 652.262695
30.94 663.276306
30.95 665.937439
30.96 658.512573
30.97 656.354431
30.98 658.228027
30.99 655.724365
31.00 657.292725
31.01 655.869263
31.02 645.064392
31.03 637.475708
31.04 643.72229
31.05 650.27594
31.06 644.607544
31.07 639.46698
31.08 635.527954
31.09 632.671143
31.10 633.305786
31.11 630.915405
31.12 626.349426
31.13 622.430298
31.14 620.803406
31.15 621.883972
31.16 619.763916
31.17 614.532532
31.18 610.961792
31.19 608.948547
31.20 608.241699
31.21 610.30304
31.22 605.156189
31.23 598.407959
31.24 597.174988
31.25 594.893494
31.26 592.281555
31.27 593.988586
31.28 593.189209
31.29 595.980103
31.30 596.880737
31.31 589.742981
31.32 585.483154
31.33 585.363098
31.34 594.376221
31.35 591.897095
31.36 591.138367
31.37 593.241333
31.38 592.072327
31.39 586.707031
31.40 579.319031
31.41 581.023193
31.42 581.947754
31.43 581.698181
31.44 586.307373
31.45 577.392334
31.46 572.138306
31.47 580.2005
31.48 585.744263
31.49 584.49231
31.50 585.242493
31.51 582.336243
31.52 582.342285
31.53 584.155579
31.54 574.87146
31.55 565.9776
31.56 568.978027
31.57 568.047974
31.58 566.258911
31.59 563.376343
31.60 565.825867
31.61 568.700562
31.62 571.485779
31.63 573.189209
31.64 573.784851
31.65 570.694031
31.66 568.680359
31.67 568.915039
31.68 576.982422
31.69 583.101746
31.70 584.141296
31.71 582.043701
31.72 579.094421
31.73 578.329956
31.74 580.400452
31.75 580.541077
31.76 571.627136
31.77 569.320862
31.78 573.23175
31.79 578.883911
31.80 575.993713
31.81 577.92395
31.82 581.095093
31.83 580.510864
31.84 575.889526
31.85 573.564392
31.86 569.797791
31.87 566.988647
31.88 565.503296
31.89 566.27948
31.90 562.987305
31.91 563.565613
31.92 565.083496
31.93 565.368347
31.94 570.653809
31.95 577.756165
31.96 579.629883
31.97 572.9552
31.98 572.225708
31.99 579.179077
32.00 576.500122
32.01 576.168274
32.02 574.420044
32.03 572.505737
32.04 570.502014
32.05 569.352783
32.06 568.090149
32.07 572.463623
32.08 579.986084
32.09 580.288818
32.10 578.306152
32.11 577.203186
32.12 566.665283
32.13 556.886658
32.14 558.984192
32.15 564.996277
32.16 560.940857
32.17 566.897949
32.18 573.61676
32.19 564.737915
32.20 558.49231
32.21 560.920959
32.22 564.153809
32.23 564.939148
32.24 564.809875
32.25 566.486389
32.26 571.396423
32.27 568.4375
32.28 565.648071
32.29 568.702393
32.30 570.306946
32.31 568.164795
32.32 568.577881
32.33 563.077454
32.34 563.47229
32.35 568.469788
32.36 567.844849
32.37 567.324158
32.38 564.778992
32.39 562.82135
32.40 563.71814
32.41 558.732971
32.42 551.665955
32.43 550.97229
32.44 555.065125
32.45 554.183044
32.46 555.40741
32.47 555.588745
32.48 549.156799
32.49 543.256592
32.50 540.400146
32.51 543.249023
32.52 552.280823
32.53 561.282471
32.54 558.250244
32.55 554.50354
32.56 556.298279
32.57 551.270935
32.58 545.80835
32.59 542.580444
32.60 543.676147
32.61 538.698303
32.62 535.321533
32.63 534.020264
32.64 530.306702
32.65 535.754272
32.66 544.695313
32.67 545.848145
32.68 546.996887
32.69 546.990723
32.70 543.284485
32.71 543.141418
32.72 541.278625
32.73 536.642029
32.74 540.852905
32.75 537.038879
32.76 529.702942
32.77 529.25769
32.78 536.554688
32.79 537.532104
32.80 536.225342
32.81 541.665466
32.82 540.06488
32.83 535.40564
32.84 533.706177
32.85 529.678284
32.86 531.66626
32.87 530.43396
32.88 529.729004
32.89 528.454285
32.90 530.932617
32.91 533.402954
32.92 537.657959
32.93 538.194153
32.94 539.918091
32.95 538.257813
32.96 531.019714
32.97 530.756226
32.98 527.896851
32.99 527.309204
33.00 526.664307
33.01 527.317322
33.02 531.527344
33.03 529.334778
33.04 520.454712
33.05 514.274109
33.06 517.264099
33.07 525.554626
33.08 526.116821
33.09 525.826233
33.10 521.292908
33.11 517.385254
33.12 512.531738
33.13 510.327515
33.14 512.17395
33.15 513.730042
33.16 520.106628
33.17 521.471924
33.18 518.136414
33.19 511.983337
33.20 508.993195
33.21 515.517517
33.22 521.302246
33.23 522.909119
33.24 521.189697
33.25 512.638855
33.26 510.538879
33.27 515.791931
33.28 515.362915
33.29 517.276428
33.30 520.76593
33.31 518.904236
33.32 516.243103
33.33 518.185364
33.34 519.162354
33.35 518.700256
33.36 513.000549
33.37 509.746033
33.38 515.426392
33.39 514.092163
33.40 511.137482
33.41 509.781708
33.42 507.181854
33.43 509.364349
33.44 516.802612
33.45 516.417664
33.46 510.525452
33.47 503.119904
33.48 509.986145
33.49 517.434937
33.50 517.460449
33.51 516.471191
33.52 513.517761
33.53 508.91861
33.54 504.158875
33.55 504.928925
33.56 507.274628
33.57 504.802673
33.58 500.21579
33.59 502.056824
33.60 505.37851
33.61 503.968994
33.62 497.744904
33.63 491.298706
33.64 486.584808
33.65 487.793365
33.66 493.366547
33.67 503.047943
33.68 504.483124
33.69 500.513733
33.70 499.856232
33.71 502.132843
33.72 509.347961
33.73 510.252655
33.74 508.162079
33.75 506.298492
33.76 503.727997
33.77 501.684326
33.78 500.030945
33.79 499.497375
33.80 495.45459
33.81 491.698517
33.82 499.268982
33.83 502.482361
33.84 500.401001
33.85 492.817078
33.86 488.558899
33.87 491.393524
33.88 489.358582
33.89 487.132385
33.90 486.570618
33.91 488.130676
33.92 491.680939
33.93 493.044861
33.94 493.884918
33.95 490.885315
33.96 497.112854
33.97 500.710449
33.98 494.462128
33.99 485.557953
34.00 486.847778
34.01 489.398071
34.02 485.693115
34.03 491.464905
34.04 493.260834
34.05 491.881653
34.06 490.899384
34.07 493.535889
34.08 497.539276
34.09 498.188812
34.10 494.390076
34.11 493.142609
34.12 496.695618
34.13 496.364532
34.14 493.817383
34.15 495.278778
34.16 495.246368
34.17 495.210907
34.18 495.34024
34.19 497.402435
34.20 488.767456
34.21 485.632629
34.22 491.380035
34.23 496.070099
34.24 506.174561
34.25 507.395264
34.26 495.954803
34.27 491.1987
34.28 491.023987
34.29 492.671112
34.30 497.029907
34.31 499.024231
34.32 494.341553
34.33 493.809479
34.34 495.232849
34.35 500.175171
34.36 512.052124
34.37 513.732361
34.38 511.317535
34.39 508.554413
34.40 506.726379
34.41 505.712738
34.42 509.257599
34.43 510.724609
34.44 503.817596
34.45 498.089508
34.46 502.804718
34.47 505.933777
34.48 509.042908
34.49 516.807861
34.50 517.016724
34.51 520.306091
34.52 518.532654
34.53 510.157928
34.54 507.377441
34.55 506.858704
34.56 509.821442
34.57 508.67334
34.58 505.051331
34.59 502.473053
34.60 499.733521
34.61 495.311768
34.62 494.363464
34.63 498.271179
34.64 502.211884
34.65 501.435699
34.66 503.334473
34.67 502.54425
34.68 502.331055
34.69 500.758606
34.70 501.318787
34.71 497.79718
34.72 491.277039
34.73 488.502106
34.74 492.322021
34.75 496.82132
34.76 503.280182
34.77 504.612518
34.78 501.247345
34.79 498.300659
34.80 493.006897
34.81 485.018311
34.82 484.129211
34.83 486.919128
34.84 492.282135
34.85 494.39386
34.86 497.096222
34.87 492.651398
34.88 489.941254
34.89 494.223145
34.90 485.378479
34.91 478.748962
34.92 487.45401
34.93 486.712402
34.94 476.510132
34.95 474.440826
34.96 472.961945
34.97 472.595795
34.98 476.851501
34.99 473.076416
35.00 468.093109
35.01 469.325378
35.02 468.033386
35.03 467.33197
35.04 472.750977
35.05 474.426208
35.06 469.049622
35.07 467.41156
35.08 463.978088
35.09 464.123444
35.10 468.304382
35.11 475.33905
35.12 475.675476
35.13 468.633392
35.14 454.640228
35.15 450.813873
35.16 452.475098
35.17 453.309845
35.18 452.148682
35.19 455.329163
35.20 457.599426
35.21 450.863007
35.22 448.552979
35.23 449.96283
35.24 452.232544
35.25 451.122559
35.26 448.791565
35.27 444.934875
35.28 441.374146
35.29 443.299683
35.30 450.593109
35.31 454.997314
35.32 455.295868
35.33 454.34198
35.34 446.671143
35.35 439.109192
35.36 439.172211
35.37 439.784821
35.38 439.422272
35.39 439.80722
35.40 440.094757
35.41 439.141632
35.42 438.359436
35.43 442.805206
35.44 445.177216
35.45 444.198944
35.46 445.788422
35.47 442.076843
35.48 435.831238
35.49 436.775879
35.50 439.377808
35.51 434.324615
35.52 430.651733
35.53 435.348785
35.54 437.385864
35.55 435.887268
35.56 434.029053
35.57 434.779694
35.58 433.03363
35.59 428.751343
35.60 429.111267
35.61 430.926025
35.62 433.64859
35.63 439.126831
35.64 442.13974
35.65 441.854279
35.66 440.61908
35.67 436.730804
35.68 431.992706
35.69 435.362213
35.70 434.91629
35.71 431.00061
35.72 431.729767
35.73 429.085205
35.74 428.284454
35.75 431.311676
35.76 430.1427
35.77 427.327911
35.78 427.454559
35.79 429.864807
35.80 436.731873
35.81 439.102844
35.82 435.601105
35.83 427.361359
35.84 420.56192
35.85 425.616699
35.86 429.513123
35.87 425.472351
35.88 427.293915
35.89 426.928528
35.90 420.036865
35.91 413.625244
35.92 408.44632
35.93 411.464233
35.94 416.985443
35.95 419.407806
35.96 416.699768
35.97 418.412872
35.98 427.142059
35.99 427.020355
36.00 422.666962
36.01 420.055725
36.02 421.43396
36.03 422.256836
36.04 419.577026
36.05 419.560944
36.06 421.65683
36.07 423.96048
36.08 416.332123
36.09 414.21759
36.10 417.812775
36.11 414.991302
36.12 414.062805
36.13 414.462006
36.14 413.029663
36.15 412.269562
36.16 410.09256
36.17 408.635651
36.18 414.896912
36.19 421.080444
36.20 419.755371
36.21 413.364594
36.22 408.521667
36.23 408.205841
36.24 406.254028
36.25 407.310669
36.26 406.562195
36.27 404.848572
36.28 404.058472
36.29 405.566681
36.30 406.958405
36.31 400.906189
36.32 398.751678
36.33 402.928772
36.34 407.496826
36.35 400.795105
36.36 401.104919
36.37 408.864349
36.38 405.417664
36.39 405.241516
36.40 408.742584
36.41 406.610138
36.42 396.76947
36.43 397.29126
36.44 402.838501
36.45 397.103485
36.46 393.397675
36.47 392.74704
36.48 396.427887
36.49 403.836517
36.50 404.296356
36.51 399.302429
36.52 398.303223
36.53 396.52121
36.54 395.395905
36.55 393.108887
36.56 394.057343
36.57 397.648254
36.58 402.659363
36.59 406.740021
36.60 405.495056
36.61 399.842224
36.62 401.944427
36.63 399.270416
36.64 395.144836
36.65 394.522766
36.66 395.896698
36.67 395.955231
36.68 397.136719
36.69 398.372894
36.70 393.962769
36.71 391.697479
36.72 392.829254
36.73 394.03653
36.74 398.595154
36.75 396.17804
36.76 394.567352
36.77 394.545288
36.78 393.428833
36.79 393.152313
36.80 388.950745
36.81 386.215485
36.82 388.451019
36.83 397.144287
36.84 398.703583
36.85 399.86792
36.86 398.208527
36.87 392.323029
36.88 391.189087
36.89 393.849548
36.90 392.901031
36.91 390.360687
36.92 385.445068
36.93 387.909821
36.94 390.596039
36.95 391.447357
36.96 390.040802
36.97 384.83493
36.98 386.199829
36.99 384.129517
37.00 381.191071
37.01 385.180145
37.02 384.604919
37.03 385.447052
37.04 388.550476
37.05 387.836029
37.06 391.567444
37.07 395.175323
37.08 394.280579
37.09 394.587128
37.10 388.833923
37.11 385.343658
37.12 382.454987
37.13 382.094086
37.14 382.895569
37.15 382.406555
37.16 379.391235
37.17 377.832336
37.18 377.916901
37.19 379.376526
37.20 383.653992
37.21 387.292511
37.22 388.048248
37.23 389.003326
37.24 389.65036
37.25 386.176086
37.26 383.617615
37.27 384.213593
37.28 382.773407
37.29 383.969696
37.30 382.829102
37.31 383.094513
37.32 381.051544
37.33 380.446777
37.34 378.994873
37.35 377.531891
37.36 380.091278
37.37 379.502014
37.38 378.403473
37.39 378.367004
37.40 380.646545
37.41 382.901672
37.42 380.026123
37.43 378.254059
37.44 377.380096
37.45 375.250793
37.46 372.374695
37.47 374.36087
37.48 378.553772
37.49 377.89975
37.50 378.390259
37.51 377.949219
37.52 374.841675
37.53 375.050964
37.54 371.950684
37.55 370.309387
37.56 371.849609
37.57 369.714569
37.58 368.443359
37.59 370.941345
37.60 373.176208
37.61 369.520508
37.62 366.0159
37.63 366.389801
37.64 366.021393
37.65 371.542084
37.66 376.794098
37.67 380.933411
37.68 387.676025
37.69 383.681366
37.70 377.668823
37.71 376.994385
37.72 377.825897
37.73 376.428619
37.74 374.326263
37.75 380.042358
37.76 380.398102
37.77 377.604584
37.78 376.759125
37.79 375.106384
37.80 375.988556
37.81 373.029022
37.82 369.300171
37.83 372.354218
37.84 375.950531
37.85 376.477173
37.86 376.125275
37.87 371.85141
37.88 375.995911
37.89 378.557495
37.90 375.874695
37.91 375.195221
37.92 377.416138
37.93 379.308044
37.94 376.843597
37.95 376.093201
37.96 378.633667
37.97 378.544525
37.98 373.311371
37.99 374.372375
38.00 376.217529
38.01 378.669769
38.02 382.741211
38.03 385.026733
38.04 383.627777
38.05 375.452576
38.06 372.240875
38.07 369.136658
38.08 365.953796
38.09 371.567993
38.10 377.389313
38.11 378.557892
38.12 378.657867
38.13 374.793915
38.14 365.786652
38.15 364.911591
38.16 369.237976
38.17 366.37088
38.18 368.844788
38.19 373.800354
38.20 374.427948
38.21 375.55777
38.22 373.22168
38.23 373.069672
38.24 375.086304
38.25 366.765472
38.26 363.758209
38.27 371.363678
38.28 371.416077
38.29 364.77713
38.30 365.908051
38.31 365.185791
38.32 367.07019
38.33 371.744843
38.34 376.5466
38.35 380.677917
38.36 379.597412
38.37 372.103424
38.38 362.766144
38.39 357.251007
38.40 357.211914
38.41 357.958893
38.42 363.259186
38.43 367.623138
38.44 363.658173
38.45 358.87674
38.46 361.781738
38.47 364.012756
38.48 363.281555
38.49 366.175201
38.50 367.051544
38.51 370.504608
38.52 373.745178
38.53 366.1651
38.54 364.684326
38.55 365.446533
38.56 366.159882
38.57 366.629669
38.58 362.808228
38.59 359.471252
38.60 365.344391
38.61 365.979126
38.62 358.896301
38.63 355.676178
38.64 359.328918
38.65 360.522583
38.66 361.088287
38.67 363.244904
38.68 361.694366
38.69 361.225189
38.70 361.337311
38.71 359.232788
38.72 351.636658
38.73 354.9086
38.74 359.523315
38.75 360.74231
38.76 357.939423
38.77 353.319794
38.78 354.400116
38.79 355.293915
38.80 356.503693
38.81 356.768799
38.82 359.209686
38.83 361.200012
38.84 355.382843
38.85 355.274963
38.86 361.796631
38.87 366.772278
38.88 363.37854
38.89 362.629608
38.90 362.996338
38.91 362.680389
38.92 362.144989
38.93 356.06308
38.94 357.150665
38.95 360.253387
38.96 356.467865
38.97 354.56601
38.98 350.732422
38.99 353.744019
39.00 351.044525
39.01 352.329132
39.02 355.588196
39.03 352.215912
39.04 352.713226
39.05 356.346771
39.06 353.045837
39.07 345.853607
39.08 353.609436
39.09 358.404999
39.10 352.552917
39.11 354.166077
39.12 355.713165
39.13 355.230011
39.14 359.975311
39.15 361.522095
39.16 356.776093
39.17 356.129852
39.18 360.632294
39.19 360.619598
39.20 358.75824
39.21 357.047974
39.22 353.638306
39.23 352.335297
39.24 353.971283
39.25 358.548187
39.26 366.161621
39.27 366.52597
39.28 360.881073
39.29 363.004852
39.30 368.446503
39.31 368.534943
39.32 366.864594
39.33 361.383667
39.34 361.989624
39.35 362.12204
39.36 358.750488
39.37 354.585114
39.38 352.114929
39.39 357.449249
39.40 362.784241
39.41 362.649963
39.42 362.255157
39.43 362.894073
39.44 363.924988
39.45 365.832184
39.46 363.766144
39.47 358.79245
39.48 355.24939
39.49 358.717896
39.50 360.404236
39.51 361.422974
39.52 359.042297
39.53 352.250061
39.54 355.510315
39.55 359.559052
39.56 359.150757
39.57 361.972656
39.58 361.166748
39.59 358.082428
39.60 356.668274
39.61 357.932526
39.62 363.032684
39.63 366.997375
39.64 366.954468
39.65 368.487885
39.66 362.290771
39.67 353.40744
39.68 353.363739
39.69 354.902832
39.70 354.830627
39.71 353.684296
39.72 350.781952
39.73 347.064606
39.74 349.44281
39.75 350.627838
39.76 348.212738
39.77 350.19632
39.78 349.411621
39.79 349.562714
39.80 350.352051
39.81 348.766296
39.82 352.365234
39.83 354.666168
39.84 353.623962
39.85 347.10498
39.86 350.66806
39.87 354.611542
39.88 356.25415
39.89 356.981232
39.90 350.781097
39.91 343.540985
39.92 347.22937
39.93 353.285156
39.94 349.526276
39.95 348.063568
39.96 343.757935
39.97 344.842438
39.98 344.876862
39.99 340.598511
40.00 342.569366
40.01 345.450958
40.02 347.077118
40.03 342.878967
40.04 341.627289
40.05 343.671875
40.06 345.220398
40.07 343.88385
40.08 342.638641
40.09 343.165314
40.10 344.744812
40.11 347.320435
40.12 350.786163
40.13 348.990143
40.14 340.064545
40.15 330.477509
40.16 329.667664
40.17 337.277344
40.18 347.156799
40.19 349.371948
40.20 346.790619
40.21 348.142792
40.22 346.250275
40.23 346.957214
40.24 346.278992
40.25 342.017029
40.26 336.409241
40.27 335.611389
40.28 337.965759
40.29 340.366089
40.30 339.376495
40.31 339.968018
40.32 347.027802
40.33 347.882019
40.34 348.675568
40.35 349.166412
40.36 343.78421
40.37 343.866364
40.38 341.578247
40.39 341.301605
40.40 343.681274
40.41 347.195465
40.42 347.010559
40.43 343.725311
40.44 345.367188
40.45 345.291229
40.46 341.635956
40.47 337.931854
40.48 346.094177
40.49 351.096375
40.50 348.602142
40.51 344.588226
40.52 340.80365
40.53 340.56192
40.54 345.406982
40.55 344.618134
40.56 341.816193
40.57 342.563629
40.58 340.388245
40.59 342.48642
40.60 344.810181
40.61 346.257263
40.62 346.819336
40.63 343.72644
40.64 346.501129
40.65 345.468536
40.66 344.021515
40.67 346.109589
40.68 344.20694
40.69 343.858765
40.70 345.401489
40.71 348.22702
40.72 353.839905
40.73 356.830383
40.74 352.319733
40.75 348.703339
40.76 346.813385
40.77 345.661835
40.78 346.591675
40.79 343.56662
40.80 339.103119
40.81 340.04126
40.82 343.407715
40.83 344.548553
40.84 341.382111
40.85 344.3703
40.86 345.334991
40.87 345.626923
40.88 351.335907
40.89 354.331329
40.90 352.643005
40.91 350.753967
40.92 351.995758
40.93 346.766754
40.94 343.128632
40.95 345.81665
40.96 345.584198
40.97 346.681946
40.98 347.775879
40.99 347.522064
41.00 348.721375
41.01 348.175232
41.02 352.25528
41.03 355.652649
41.04 353.507538
41.05 350.508881
41.06 345.162628
41.07 345.393097
41.08 344.528076
41.09 343.378296
41.10 350.235046
