!@!!GADDS PLOTSO FILE: Chi integration type
!@!!Title/SampleName: ML_MAPbX3
!@!!User: NREL
!@!!Site: NREL SERF C211; SN 2510
!@!!Frame: 081022_MLProject_000_017.gfrm
!@!!Wavelengths    1.54184   1.54056   1.54439
!@!!Frame angles: 2Theta: 28.000 Omega: 5.000 Phi: 0.000 Chi: 90.000
!@!!Integration range: 2Theta: 10.000 to 41.100  Gamma: -120.400 to -60.400
!@!!Integration method: bin normalized
!@!N
!@!SS
!@!M
!@!L 0.0 0.0 0.0 0.0
!@!XDegrees
!@!YCounts
10.00 200.501633
10.01 207.562027
10.02 201.738251
10.03 196.117569
10.04 197.727905
10.05 199.468307
10.06 197.014542
10.07 197.222717
10.08 189.465057
10.09 186.32695
10.10 198.681183
10.11 204.90123
10.12 198.027267
10.13 194.279541
10.14 190.142014
10.15 192.385788
10.16 200.271698
10.17 199.904678
10.18 198.286835
10.19 202.095123
10.20 198.269028
10.21 198.257599
10.22 201.544312
10.23 196.447861
10.24 197.626083
10.25 198.526566
10.26 194.442261
10.27 201.081223
10.28 208.636795
10.29 210.496048
10.30 214.524094
10.31 213.785187
10.32 209.129898
10.33 197.97731
10.34 196.950867
10.35 204.423813
10.36 204.927322
10.37 201.840744
10.38 196.369934
10.39 197.445374
10.40 203.995514
10.41 209.927536
10.42 211.940277
10.43 208.016464
10.44 200.582092
10.45 203.788467
10.46 207.130402
10.47 206.873703
10.48 208.621033
10.49 216.812271
10.50 219.750153
10.51 205.757599
10.52 192.456161
10.53 195.125
10.54 197.358185
10.55 196.955551
10.56 199.773666
10.57 202.435379
10.58 207.843567
10.59 210.045532
10.60 212.659561
10.61 215.373932
10.62 209.75441
10.63 213.745148
10.64 218.138565
10.65 216.264694
10.66 209.843704
10.67 208.375885
10.68 213.403641
10.69 216.503159
10.70 219.785568
10.71 219.173386
10.72 214.363586
10.73 207.835617
10.74 207.259109
10.75 207.031677
10.76 203.932037
10.77 203.482513
10.78 203.907654
10.79 205.671753
10.80 212.433014
10.81 217.918442
10.82 214.428833
10.83 209.411835
10.84 206.669891
10.85 211.536911
10.86 221.646774
10.87 227.988892
10.88 230.389359
10.89 228.903397
10.90 224.312347
10.91 216.46582
10.92 215.240189
10.93 216.233582
10.94 213.231766
10.95 208.207932
10.96 202.060226
10.97 210.563568
10.98 212.050446
10.99 207.230789
11.00 209.261078
11.01 216.258636
11.02 223.361862
11.03 224.636169
11.04 222.152817
11.05 221.481339
11.06 221.23616
11.07 217.139145
11.08 225.615387
11.09 237.994537
11.10 236.714508
11.11 233.148041
11.12 232.124588
11.13 225.200134
11.14 224.264908
11.15 230.453873
11.16 227.964706
11.17 230.130371
11.18 230.757584
11.19 225.928619
11.20 217.740433
11.21 215.073334
11.22 224.168991
11.23 227.311935
11.24 219.220032
11.25 216.87439
11.26 215.614777
11.27 216.800797
11.28 229.623459
11.29 237.47171
11.30 239.055222
11.31 238.145187
11.32 240.189514
11.33 227.314392
11.34 216.280884
11.35 227.952042
11.36 228.737396
11.37 224.184921
11.38 229.380188
11.39 228.192734
11.40 228.918945
11.41 230.430344
11.42 225.545959
11.43 221.885574
11.44 227.857193
11.45 230.179169
11.46 238.056152
11.47 242.843094
11.48 243.132217
11.49 246.342194
11.50 236.598236
11.51 233.536102
11.52 232.349152
11.53 221.213699
11.54 220.32048
11.55 228.369812
11.56 228.777954
11.57 225.329697
11.58 221.561539
11.59 224.613083
11.60 233.055908
11.61 237.254562
11.62 236.727829
11.63 238.511017
11.64 237.920639
11.65 235.083725
11.66 236.800278
11.67 242.670013
11.68 243.69397
11.69 245.880707
11.70 246.100174
11.71 244.357498
11.72 248.561203
11.73 253.296371
11.74 248.305298
11.75 249.079391
11.76 255.128036
11.77 252.311935
11.78 248.690857
11.79 247.255997
11.80 253.168411
11.81 260.689301
11.82 261.844788
11.83 258.510254
11.84 251.750565
11.85 249.319229
11.86 254.989975
11.87 255.969604
11.88 252.736664
11.89 250.637787
11.90 250.240295
11.91 259.613708
11.92 273.015167
11.93 275.458893
11.94 269.562592
11.95 269.880768
11.96 280.714417
11.97 279.6763
11.98 275.340179
11.99 274.841797
12.00 280.901062
12.01 288.226135
12.02 296.777954
12.03 304.171448
12.04 304.819305
12.05 302.785858
12.06 304.905518
12.07 302.349609
12.08 294.469055
12.09 295.903687
12.10 304.885437
12.11 310.487885
12.12 311.696808
12.13 320.324921
12.14 333.556366
12.15 335.481689
12.16 335.55011
12.17 332.373199
12.18 325.084808
12.19 320.236115
12.20 320.059387
12.21 329.164642
12.22 345.647095
12.23 366.103638
12.24 375.527313
12.25 384.624054
12.26 387.120239
12.27 386.980103
12.28 384.76001
12.29 390.708008
12.30 398.275146
12.31 403.665161
12.32 413.340332
12.33 424.705414
12.34 441.086975
12.35 463.572571
12.36 467.682404
12.37 476.338074
12.38 488.733002
12.39 498.538818
12.40 503.355316
12.41 512.203857
12.42 521.85022
12.43 535.346741
12.44 552.064209
12.45 558.223572
12.46 565.443298
12.47 580.326538
12.48 607.668701
12.49 623.888916
12.50 641.660278
12.51 649.349792
12.52 642.185425
12.53 649.935486
12.54 661.334778
12.55 665.806152
12.56 686.218506
12.57 696.357178
12.58 707.919739
12.59 709.773499
12.60 694.728271
12.61 683.5672
12.62 677.73999
12.63 672.778931
12.64 658.487305
12.65 645.285034
12.66 643.942383
12.67 645.144226
12.68 635.004517
12.69 616.666809
12.70 597.544373
12.71 583.143738
12.72 572.616089
12.73 547.229553
12.74 537.039917
12.75 536.720154
12.76 529.355591
12.77 504.07309
12.78 491.543152
12.79 478.313202
12.80 470.000397
12.81 454.376923
12.82 443.426788
12.83 429.275604
12.84 422.859863
12.85 413.045288
12.86 401.842865
12.87 387.238525
12.88 384.80481
12.89 376.154297
12.90 365.398102
12.91 356.506104
12.92 344.477295
12.93 325.882813
12.94 314.26416
12.95 312.513428
12.96 306.832092
12.97 300.748657
12.98 300.713013
12.99 310.084656
13.00 311.184265
13.01 309.035828
13.02 310.203796
13.03 300.291473
13.04 293.82782
13.05 300.664948
13.06 300.364014
13.07 303.416656
13.08 293.841827
13.09 279.566345
13.10 280.06369
13.11 286.872681
13.12 291.734863
13.13 291.313507
13.14 293.870148
13.15 295.160797
13.16 286.380157
13.17 279.465118
13.18 284.096802
13.19 285.698151
13.20 282.203796
13.21 282.041687
13.22 284.173096
13.23 287.106598
13.24 284.995026
13.25 285.631683
13.26 292.057343
13.27 296.424805
13.28 283.857391
13.29 274.951477
13.30 280.269623
13.31 282.505829
13.32 284.504913
13.33 284.143219
13.34 279.593262
13.35 275.36911
13.36 280.423096
13.37 279.562683
13.38 278.446747
13.39 279.344025
13.40 276.66803
13.41 277.673035
13.42 278.874359
13.43 276.100525
13.44 272.602203
13.45 269.726563
13.46 269.102783
13.47 276.242126
13.48 279.542694
13.49 279.958649
13.50 272.290222
13.51 271.817108
13.52 285.689728
13.53 292.381348
13.54 290.416107
13.55 283.9151
13.56 281.677155
13.57 286.085236
13.58 290.791443
13.59 292.37738
13.60 294.422577
13.61 287.784576
13.62 284.074554
13.63 287.693726
13.64 294.330017
13.65 296.259644
13.66 294.704132
13.67 289.403625
13.68 289.762268
13.69 297.23465
13.70 295.392639
13.71 303.596802
13.72 308.6185
13.73 306.2901
13.74 308.084167
13.75 312.531006
13.76 310.995697
13.77 303.424683
13.78 299.078125
13.79 300.453644
13.80 303.213715
13.81 308.065216
13.82 315.108704
13.83 320.47821
13.84 322.773468
13.85 326.862762
13.86 330.128418
13.87 331.03009
13.88 333.262451
13.89 334.132477
13.90 332.306793
13.91 334.41037
13.92 337.925995
13.93 336.577606
13.94 338.499512
13.95 341.938385
13.96 345.212311
13.97 347.432892
13.98 349.467804
13.99 354.930542
14.00 365.618805
14.01 376.04422
14.02 371.024872
14.03 371.176239
14.04 387.512512
14.05 386.349976
14.06 382.993256
14.07 391.086426
14.08 393.844208
14.09 396.020966
14.10 400.043549
14.11 408.841644
14.12 416.619476
14.13 419.232971
14.14 432.553314
14.15 447.075073
14.16 451.021271
14.17 465.114471
14.18 461.336639
14.19 451.316772
14.20 446.793396
14.21 458.020081
14.22 485.443604
14.23 504.523315
14.24 516.538818
14.25 522.105957
14.26 528.340149
14.27 534.163574
14.28 537.358582
14.29 531.82428
14.30 531.793884
14.31 529.903015
14.32 535.020386
14.33 543.599731
14.34 547.957397
14.35 559.124268
14.36 558.7276
14.37 558.260986
14.38 564.837524
14.39 556.267639
14.40 551.027771
14.41 532.799805
14.42 519.181213
14.43 520.096802
14.44 514.872253
14.45 509.750397
14.46 516.09845
14.47 512.837341
14.48 495.914978
14.49 478.532379
14.50 485.695007
14.51 483.941803
14.52 472.686249
14.53 469.28241
14.54 453.789978
14.55 427.740692
14.56 423.706909
14.57 429.179016
14.58 422.767303
14.59 417.470154
14.60 420.216217
14.61 418.234833
14.62 411.554138
14.63 411.95697
14.64 412.220795
14.65 405.794678
14.66 401.964294
14.67 397.549316
14.68 393.129028
14.69 393.493195
14.70 390.405609
14.71 396.30304
14.72 400.184967
14.73 395.063599
14.74 399.197601
14.75 401.127838
14.76 392.024261
14.77 396.875702
14.78 412.701874
14.79 416.151825
14.80 404.673737
14.81 401.366394
14.82 410.604248
14.83 409.49765
14.84 415.065094
14.85 426.057068
14.86 434.384766
14.87 440.584198
14.88 439.662201
14.89 437.062195
14.90 437.225342
14.91 441.785461
14.92 446.469208
14.93 454.473907
14.94 461.149658
14.95 472.905731
14.96 479.255463
14.97 484.519684
14.98 492.764618
14.99 495.673676
15.00 502.054504
15.01 500.038391
15.02 502.294159
15.03 505.842651
15.04 518.738098
15.05 526.350525
15.06 541.05365
15.07 557.833618
15.08 563.777954
15.09 574.81958
15.10 580.129272
15.11 581.802734
15.12 585.821045
15.13 586.809021
15.14 589.520264
15.15 604.083191
15.16 611.132446
15.17 609.324768
15.18 613.41333
15.19 621.439453
15.20 629.525696
15.21 639.736389
15.22 632.175354
15.23 626.181702
15.24 631.187805
15.25 634.450317
15.26 634.719727
15.27 629.441467
15.28 616.153748
15.29 604.544067
15.30 604.823547
15.31 604.162842
15.32 589.836121
15.33 581.177246
15.34 563.218689
15.35 553.389221
15.36 544.106628
15.37 542.112
15.38 544.258789
15.39 542.529907
15.40 530.549561
15.41 517.894043
15.42 494.767212
15.43 468.510284
15.44 468.612946
15.45 463.390045
15.46 456.871155
15.47 454.568787
15.48 436.525299
15.49 414.440063
15.50 409.307648
15.51 394.135345
15.52 394.041107
15.53 398.983917
15.54 392.366425
15.55 385.264526
15.56 379.336029
15.57 372.530182
15.58 373.358429
15.59 372.472473
15.60 365.595886
15.61 359.526062
15.62 353.515442
15.63 358.490082
15.64 354.184418
15.65 348.072449
15.66 348.622711
15.67 346.7164
15.68 346.640503
15.69 347.009247
15.70 345.881104
15.71 338.970886
15.72 338.368164
15.73 341.479156
15.74 340.215546
15.75 335.65625
15.76 333.891113
15.77 340.44339
15.78 337.134369
15.79 329.098083
15.80 331.984589
15.81 336.122742
15.82 331.698822
15.83 328.10556
15.84 329.98761
15.85 328.02652
15.86 322.934479
15.87 328.336151
15.88 331.816406
15.89 333.279266
15.90 333.213104
15.91 331.497833
15.92 331.636963
15.93 332.141357
15.94 332.866882
15.95 333.789978
15.96 336.017517
15.97 337.830322
15.98 330.64151
15.99 328.786591
16.00 334.34137
16.01 332.029388
16.02 324.363129
16.03 321.86264
16.04 326.784363
16.05 325.646729
16.06 323.828857
16.07 323.002502
16.08 322.0354
16.09 327.819061
16.10 332.693939
16.11 329.898254
16.12 323.414917
16.13 319.713226
16.14 320.037476
16.15 325.48056
16.16 323.955261
16.17 315.182739
16.18 315.671967
16.19 328.049683
16.20 340.240356
16.21 342.806
16.22 336.883636
16.23 323.024567
16.24 322.544434
16.25 328.188934
16.26 329.463715
16.27 333.762726
16.28 337.846313
16.29 331.433716
16.30 330.670685
16.31 338.523499
16.32 339.956268
16.33 332.931183
16.34 332.014862
16.35 334.417755
16.36 325.387848
16.37 326.031769
16.38 326.539459
16.39 319.45224
16.40 321.397827
16.41 319.235016
16.42 328.042542
16.43 340.700104
16.44 340.888763
16.45 335.521851
16.46 332.234924
16.47 329.577148
16.48 325.453186
16.49 327.8797
16.50 328.084534
16.51 328.437836
16.52 331.606506
16.53 327.209259
16.54 323.880493
16.55 328.622345
16.56 337.608307
16.57 344.514099
16.58 340.333191
16.59 338.505859
16.60 336.974121
16.61 332.528168
16.62 331.42627
16.63 330.902863
16.64 333.84491
16.65 339.93515
16.66 351.20871
16.67 355.164185
16.68 344.157898
16.69 332.030609
16.70 326.11618
16.71 327.394409
16.72 333.465332
16.73 345.443909
16.74 350.306885
16.75 350.081024
16.76 352.717438
16.77 340.627014
16.78 330.092896
16.79 339.238312
16.80 347.955139
16.81 342.789154
16.82 331.110474
16.83 333.210144
16.84 344.866791
16.85 354.082245
16.86 351.916809
16.87 338.922363
16.88 332.961121
16.89 338.574951
16.90 339.787048
16.91 338.282715
16.92 344.074829
16.93 347.347931
16.94 339.992157
16.95 337.196106
16.96 340.80542
16.97 346.158478
16.98 348.498627
16.99 352.349487
17.00 343.952698
17.01 345.637909
17.02 352.970673
17.03 359.201996
17.04 356.539917
17.05 348.338104
17.06 347.143341
17.07 347.509369
17.08 351.434296
17.09 351.811737
17.10 353.48407
17.11 359.787933
17.12 358.026245
17.13 356.626312
17.14 362.562927
17.15 360.230011
17.16 350.492645
17.17 349.151428
17.18 343.091949
17.19 341.412384
17.20 354.260559
17.21 358.451599
17.22 356.301392
17.23 344.893646
17.24 335.746918
17.25 344.188507
17.26 349.346313
17.27 352.03241
17.28 357.953491
17.29 361.697815
17.30 362.712402
17.31 369.859711
17.32 377.06311
17.33 370.012421
17.34 360.149017
17.35 363.096802
17.36 363.890015
17.37 357.72583
17.38 353.47229
17.39 349.920929
17.40 353.690765
17.41 360.468506
17.42 362.717377
17.43 354.173676
17.44 354.38028
17.45 361.80304
17.46 368.674896
17.47 367.04071
17.48 367.518311
17.49 370.223358
17.50 368.011841
17.51 375.323395
17.52 376.457886
17.53 361.767853
17.54 361.136993
17.55 369.447388
17.56 363.650696
17.57 358.515045
17.58 363.080597
17.59 358.644745
17.60 354.980225
17.61 358.237335
17.62 357.861603
17.63 356.306793
17.64 362.972198
17.65 374.320496
17.66 373.793976
17.67 375.518219
17.68 377.882324
17.69 377.631256
17.70 379.307037
17.71 383.178497
17.72 381.001831
17.73 379.196198
17.74 385.929413
17.75 384.880127
17.76 388.695374
17.77 382.596039
17.78 373.423096
17.79 378.996979
17.80 381.720459
17.81 379.531586
17.82 383.300964
17.83 380.688232
17.84 368.131104
17.85 360.055695
17.86 375.017303
17.87 387.875488
17.88 382.611084
17.89 376.946045
17.90 374.606354
17.91 380.042725
17.92 387.291962
17.93 387.52536
17.94 382.348206
17.95 375.396942
17.96 372.727203
17.97 368.976074
17.98 368.300415
17.99 373.355927
18.00 377.148804
18.01 379.918701
18.02 383.117279
18.03 382.551971
18.04 378.323517
18.05 382.32016
18.06 384.254089
18.07 381.896362
18.08 381.528809
18.09 380.679626
18.10 381.630554
18.11 380.403778
18.12 382.3302
18.13 384.593384
18.14 379.683197
18.15 377.765778
18.16 379.619171
18.17 380.644623
18.18 380.043518
18.19 384.615723
18.20 380.661987
18.21 380.025909
18.22 384.431274
18.23 385.193298
18.24 383.779694
18.25 389.205078
18.26 390.408569
18.27 391.066498
18.28 393.999481
18.29 402.27301
18.30 397.509277
18.31 386.819519
18.32 379.997559
18.33 380.497833
18.34 385.933014
18.35 389.524048
18.36 394.137695
18.37 398.128082
18.38 393.736908
18.39 391.892303
18.40 397.659698
18.41 405.481995
18.42 413.942932
18.43 408.706055
18.44 402.46225
18.45 405.587341
18.46 398.27652
18.47 404.186371
18.48 414.597839
18.49 410.829163
18.50 410.207886
18.51 400.154907
18.52 391.245331
18.53 392.954071
18.54 391.174835
18.55 391.455048
18.56 389.214844
18.57 386.584625
18.58 393.052551
18.59 395.93161
18.60 392.260773
18.61 395.723206
18.62 403.451691
18.63 406.446808
18.64 403.023926
18.65 396.897522
18.66 395.552887
18.67 396.51709
18.68 405.731903
18.69 412.858093
18.70 411.509186
18.71 404.638153
18.72 400.08725
18.73 391.175171
18.74 387.262115
18.75 397.64505
18.76 402.174072
18.77 404.165741
18.78 405.880371
18.79 401.939819
18.80 398.217957
18.81 405.927094
18.82 411.132141
18.83 414.079559
18.84 414.263153
18.85 411.423035
18.86 415.867828
18.87 420.131683
18.88 417.063843
18.89 413.971161
18.90 415.00592
18.91 416.5242
18.92 417.508453
18.93 413.184906
18.94 414.75293
18.95 411.904724
18.96 411.917908
18.97 426.32547
18.98 434.908447
18.99 430.758026
19.00 427.292389
19.01 428.521179
19.02 427.723785
19.03 420.383728
19.04 421.621521
19.05 421.147278
19.06 416.42395
19.07 414.933472
19.08 417.121124
19.09 418.350098
19.10 421.970856
19.11 427.919739
19.12 430.888641
19.13 434.127502
19.14 428.923279
19.15 422.687225
19.16 420.808502
19.17 423.600311
19.18 429.015656
19.19 428.335144
19.20 431.827759
19.21 429.952637
19.22 425.459137
19.23 427.219696
19.24 431.949951
19.25 437.617828
19.26 436.721649
19.27 435.673157
19.28 444.387726
19.29 442.806
19.30 433.015778
19.31 436.706512
19.32 442.774628
19.33 442.962067
19.34 443.991516
19.35 454.571869
19.36 453.566803
19.37 444.864685
19.38 444.942047
19.39 444.216522
19.40 437.568237
19.41 435.736389
19.42 442.903351
19.43 437.298309
19.44 440.559326
19.45 445.578003
19.46 440.617065
19.47 440.158997
19.48 447.045258
19.49 455.264069
19.50 453.24295
19.51 451.248657
19.52 451.558838
19.53 453.37262
19.54 457.012726
19.55 454.67038
19.56 445.43866
19.57 446.488586
19.58 448.803192
19.59 448.578857
19.60 451.813385
19.61 449.596863
19.62 447.404236
19.63 448.582794
19.64 451.058014
19.65 453.959686
19.66 457.233185
19.67 460.844788
19.68 450.979309
19.69 439.31366
19.70 444.74585
19.71 446.506134
19.72 448.519531
19.73 446.052612
19.74 438.913818
19.75 446.341797
19.76 449.302979
19.77 449.118713
19.78 458.052155
19.79 461.543427
19.80 463.040466
19.81 463.766327
19.82 466.697296
19.83 469.586395
19.84 471.209869
19.85 475.348877
19.86 469.550629
19.87 464.340881
19.88 462.71109
19.89 455.495361
19.90 451.699493
19.91 460.749695
19.92 468.921265
19.93 464.665558
19.94 470.919006
19.95 475.601135
19.96 475.787201
19.97 472.700653
19.98 478.635925
19.99 471.960846
20.00 458.292328
20.01 457.190582
20.02 468.350708
20.03 477.132385
20.04 474.446289
20.05 471.29361
20.06 471.375214
20.07 468.077606
20.08 469.165375
20.09 471.008362
20.10 472.323578
20.11 472.317383
20.12 473.629944
20.13 474.857056
20.14 475.083038
20.15 479.805389
20.16 481.896973
20.17 482.696533
20.18 485.837677
20.19 482.496796
20.20 482.763489
20.21 491.403656
20.22 499.5383
20.23 497.184326
20.24 492.876068
20.25 491.996368
20.26 494.445221
20.27 496.729553
20.28 503.69635
20.29 502.125336
20.30 495.991455
20.31 493.506195
20.32 493.32135
20.33 490.452698
20.34 489.287231
20.35 484.451233
20.36 477.043365
20.37 480.517181
20.38 484.972473
20.39 486.907745
20.40 490.194489
20.41 496.119751
20.42 496.469269
20.43 497.462097
20.44 500.887512
20.45 499.188446
20.46 488.534088
20.47 477.336029
20.48 479.184021
20.49 486.687256
20.50 490.668427
20.51 492.004822
20.52 499.03598
20.53 513.104431
20.54 510.74292
20.55 499.807434
20.56 500.239014
20.57 501.563019
20.58 501.641998
20.59 503.49408
20.60 502.996338
20.61 498.834442
20.62 497.314056
20.63 495.999359
20.64 493.320801
20.65 492.022827
20.66 495.885254
20.67 495.111267
20.68 500.496582
20.69 508.775177
20.70 510.297791
20.71 511.658447
20.72 514.583069
20.73 512.062073
20.74 508.280396
20.75 506.514801
20.76 503.853973
20.77 500.119781
20.78 509.651703
20.79 523.514465
20.80 529.332458
20.81 517.15863
20.82 506.036865
20.83 508.14978
20.84 509.403992
20.85 504.354156
20.86 505.820679
20.87 511.573273
20.88 523.881836
20.89 521.634521
20.90 518.06427
20.91 514.146179
20.92 504.444489
20.93 508.114258
20.94 512.420227
20.95 512.935364
20.96 517.348633
20.97 515.770264
20.98 514.950928
20.99 523.568054
21.00 531.602234
21.01 533.99054
21.02 535.025818
21.03 531.961426
21.04 524.792542
21.05 521.512756
21.06 521.809143
21.07 525.265076
21.08 523.889648
21.09 515.259766
21.10 515.536621
21.11 519.968567
21.12 511.715088
21.13 515.594543
21.14 527.459717
21.15 533.32074
21.16 538.805237
21.17 541.619324
21.18 535.700745
21.19 526.429199
21.20 516.668884
21.21 514.419739
21.22 524.018738
21.23 534.783142
21.24 537.603699
21.25 535.751343
21.26 536.436279
21.27 539.31604
21.28 534.140991
21.29 530.452454
21.30 530.499084
21.31 530.126099
21.32 528.257263
21.33 525.359924
21.34 534.034119
21.35 541.323547
21.36 539.854675
21.37 540.296082
21.38 542.494507
21.39 543.608887
21.40 532.409973
21.41 520.90155
21.42 523.952881
21.43 533.58252
21.44 546.441467
21.45 549.483521
21.46 543.902161
21.47 546.584351
21.48 548.865479
21.49 547.56781
21.50 541.866089
21.51 540.666199
21.52 544.127563
21.53 548.217651
21.54 556.092712
21.55 564.926025
21.56 558.637512
21.57 548.815491
21.58 544.729919
21.59 543.258423
21.60 546.798767
21.61 551.25946
21.62 547.697327
21.63 541.108765
21.64 538.28125
21.65 542.939697
21.66 542.428589
21.67 541.103943
21.68 543.93634
21.69 547.467957
21.70 547.840393
21.71 542.93457
21.72 539.952759
21.73 548.265198
21.74 552.148193
21.75 554.794678
21.76 559.170837
21.77 560.575073
21.78 552.582581
21.79 550.131104
21.80 547.450745
21.81 545.326782
21.82 546.98645
21.83 543.867859
21.84 543.118347
21.85 549.099426
21.86 559.159302
21.87 561.0578
21.88 556.440369
21.89 562.176575
21.90 568.092468
21.91 564.195557
21.92 563.037781
21.93 565.993835
21.94 565.233093
21.95 560.049927
21.96 558.629639
21.97 561.278931
21.98 570.426086
21.99 574.815491
22.00 569.987366
22.01 568.880493
22.02 573.211304
22.03 579.161133
22.04 564.878845
22.05 554.082153
22.06 562.403931
22.07 568.145447
22.08 563.996704
22.09 554.264343
22.10 552.129028
22.11 554.907166
22.12 569.807129
22.13 585.135681
22.14 578.426941
22.15 569.637634
22.16 571.656555
22.17 569.594482
22.18 575.361816
22.19 582.173401
22.20 583.16925
22.21 582.988281
22.22 581.231323
22.23 576.215759
22.24 567.466553
22.25 560.523987
22.26 560.776978
22.27 566.479675
22.28 581.583984
22.29 591.672791
22.30 585.170532
22.31 575.802307
22.32 574.046753
22.33 577.120056
22.34 579.02179
22.35 581.943848
22.36 578.768188
22.37 581.504272
22.38 583.624512
22.39 582.149475
22.40 575.046387
22.41 572.539673
22.42 570.174805
22.43 578.928223
22.44 590.248718
22.45 592.672791
22.46 590.968689
22.47 587.639038
22.48 582.509705
22.49 590.30603
22.50 592.241028
22.51 582.022217
22.52 575.958496
22.53 578.526184
22.54 580.690186
22.55 582.789429
22.56 590.070129
22.57 601.33075
22.58 607.85321
22.59 605.545532
22.60 595.764587
22.61 589.188049
22.62 584.966919
22.63 580.610779
22.64 584.595825
22.65 586.633606
22.66 581.83844
22.67 586.140625
22.68 588.582825
22.69 597.483948
22.70 593.60376
22.71 594.032104
22.72 597.897888
22.73 591.945129
22.74 582.636719
22.75 587.594116
22.76 592.72699
22.77 588.908203
22.78 584.653503
22.79 584.210144
22.80 585.6427
22.81 598.692688
22.82 603.765076
22.83 598.915955
22.84 600.661926
22.85 597.605591
22.86 597.493286
22.87 602.621399
22.88 608.629211
22.89 605.997681
22.90 606.477844
22.91 600.669006
22.92 601.505676
22.93 597.567261
22.94 586.737122
22.95 586.806885
22.96 594.81488
22.97 599.987671
22.98 610.212219
22.99 616.825745
23.00 621.274536
23.01 616.147278
23.02 602.684082
23.03 596.404297
23.04 593.684021
23.05 591.112061
23.06 593.56897
23.07 601.549438
23.08 601.612793
23.09 596.128418
23.10 594.175049
23.11 594.147461
23.12 593.729614
23.13 595.479431
23.14 599.530518
23.15 600.641724
23.16 592.724792
23.17 597.591248
23.18 609.07135
23.19 609.492493
23.20 613.270752
23.21 613.552124
23.22 608.795959
23.23 609.758545
23.24 617.635132
23.25 618.870667
23.26 609.393005
23.27 602.722168
23.28 600.415833
23.29 600.276611
23.30 607.200867
23.31 613.478699
23.32 607.616577
23.33 607.402222
23.34 613.505859
23.35 611.218506
23.36 610.750732
23.37 607.090698
23.38 602.195679
23.39 607.09137
23.40 611.907532
23.41 611.103333
23.42 606.860901
23.43 610.99176
23.44 615.989197
23.45 617.853882
23.46 614.422424
23.47 620.436096
23.48 626.262207
23.49 621.05304
23.50 611.050537
23.51 603.698975
23.52 600.957764
23.53 596.123169
23.54 600.405457
23.55 604.794067
23.56 606.62323
23.57 617.666504
23.58 617.402527
23.59 614.647217
23.60 621.348633
23.61 622.849121
23.62 626.316528
23.63 629.745605
23.64 626.62384
23.65 628.89563
23.66 628.755554
23.67 623.458252
23.68 624.644775
23.69 619.962463
23.70 614.91156
23.71 616.59668
23.72 622.7323
23.73 626.622192
23.74 625.17041
23.75 625.722046
23.76 620.185059
23.77 610.514404
23.78 610.834351
23.79 620.461792
23.80 621.231323
23.81 614.906372
23.82 620.50354
23.83 624.53717
23.84 628.578369
23.85 630.48645
23.86 623.847595
23.87 622.984131
23.88 626.185059
23.89 625.384399
23.90 619.588745
23.91 613.578796
23.92 611.126221
23.93 611.541077
23.94 609.833374
23.95 603.442383
23.96 602.821655
23.97 609.242065
23.98 625.004333
23.99 630.669495
24.00 623.465454
24.01 619.428589
24.02 617.009399
24.03 620.039307
24.04 617.493713
24.05 618.155273
24.06 625.869995
24.07 620.381653
24.08 623.486816
24.09 633.99292
24.10 640.757874
24.11 632.122314
24.12 627.347656
24.13 630.130798
24.14 626.217102
24.15 622.823547
24.16 618.115906
24.17 614.540588
24.18 615.463074
24.19 613.542175
24.20 613.26178
24.21 624.275635
24.22 619.842285
24.23 613.932373
24.24 621.067993
24.25 633.359009
24.26 638.516357
24.27 642.502197
24.28 651.998657
24.29 653.469727
24.30 644.888123
24.31 643.962402
24.32 646.86554
24.33 641.595642
24.34 634.0578
24.35 631.608887
24.36 624.558594
24.37 626.310181
24.38 639.683472
24.39 649.125
24.40 646.81366
24.41 635.810669
24.42 632.022766
24.43 635.360413
24.44 637.694763
24.45 631.769775
24.46 621.010437
24.47 620.46698
24.48 620.992737
24.49 622.690369
24.50 630.708252
24.51 629.950439
24.52 624.137329
24.53 619.305603
24.54 621.203674
24.55 627.542908
24.56 634.871948
24.57 640.606934
24.58 639.806213
24.59 628.547424
24.60 625.362427
24.61 624.401428
24.62 622.379822
24.63 624.094299
24.64 626.605835
24.65 628.739563
24.66 623.938782
24.67 623.07251
24.68 623.950684
24.69 623.834778
24.70 624.194519
24.71 622.337585
24.72 615.969055
24.73 618.566284
24.74 626.24231
24.75 623.627869
24.76 624.348877
24.77 635.416199
24.78 646.218933
24.79 642.578735
24.80 635.082642
24.81 628.435669
24.82 629.031433
24.83 630.774414
24.84 622.132446
24.85 621.955383
24.86 625.861511
24.87 631.215027
24.88 645.903015
24.89 650.743469
24.90 644.03656
24.91 647.786377
24.92 647.470459
24.93 640.465698
24.94 635.223083
24.95 631.812378
24.96 631.201599
24.97 627.45752
24.98 619.34967
24.99 619.630432
25.00 628.054504
25.01 632.886353
25.02 636.662842
25.03 641.385193
25.04 638.522827
25.05 636.698914
25.06 643.209473
25.07 639.215881
25.08 636.774475
25.09 636.532227
25.10 643.422119
25.11 646.229614
25.12 648.555603
25.13 649.480103
25.14 640.147827
25.15 635.895386
25.16 639.704163
25.17 634.955444
25.18 635.582092
25.19 642.340332
25.20 651.843262
25.21 652.147827
25.22 650.518555
25.23 649.936646
25.24 644.896362
25.25 648.406311
25.26 648.28241
25.27 643.257629
25.28 640.424683
25.29 639.200134
25.30 645.20166
25.31 642.609863
25.32 644.008667
25.33 650.983032
25.34 648.977417
25.35 638.780334
25.36 634.637024
25.37 635.946533
25.38 644.919678
25.39 651.038696
25.40 643.890808
25.41 639.359741
25.42 639.077148
25.43 633.580444
25.44 632.632935
25.45 633.456909
25.46 637.87738
25.47 640.132324
25.48 637.052612
25.49 635.402771
25.50 632.672546
25.51 635.151367
25.52 639.132019
25.53 643.127075
25.54 644.408691
25.55 644.429565
25.56 641.63208
25.57 646.762268
25.58 652.459717
25.59 657.234009
25.60 655.624695
25.61 649.642029
25.62 645.511719
25.63 643.946472
25.64 636.024536
25.65 635.306824
25.66 636.175415
25.67 638.640625
25.68 636.391296
25.69 637.302795
25.70 649.054871
25.71 656.74292
25.72 650.565613
25.73 645.678406
25.74 643.444336
25.75 645.780457
25.76 639.156555
25.77 632.243164
25.78 637.751404
25.79 644.919434
25.80 640.476746
25.81 636.775818
25.82 637.06073
25.83 638.337036
25.84 638.307556
25.85 637.030396
25.86 642.16217
25.87 638.090881
25.88 627.148376
25.89 626.987
25.90 628.192444
25.91 636.779602
25.92 640.673645
25.93 637.343384
25.94 633.727783
25.95 635.247925
25.96 644.08667
25.97 648.786072
25.98 643.848877
25.99 644.384521
26.00 638.887329
26.01 631.616394
26.02 639.011292
26.03 649.486572
26.04 643.095825
26.05 636.00531
26.06 632.975891
26.07 634.394348
26.08 633.535278
26.09 633.80188
26.10 638.430359
26.11 642.9422
26.12 639.769592
26.13 639.105713
26.14 638.142822
26.15 634.358337
26.16 634.383118
26.17 633.985229
26.18 633.385681
26.19 634.971924
26.20 638.432983
26.21 649.326294
26.22 655.554016
26.23 652.210693
26.24 645.335876
26.25 641.501465
26.26 645.221619
26.27 646.895386
26.28 643.246033
26.29 647.691528
26.30 644.879089
26.31 634.035095
26.32 629.510742
26.33 634.460999
26.34 637.896973
26.35 634.869446
26.36 629.680054
26.37 624.911926
26.38 627.758667
26.39 629.445679
26.40 624.190369
26.41 622.419373
26.42 628.776978
26.43 641.032959
26.44 640.543518
26.45 633.545593
26.46 631.598267
26.47 638.694519
26.48 643.720947
26.49 642.760193
26.50 642.006775
26.51 632.740173
26.52 617.674622
26.53 618.206848
26.54 624.987427
26.55 626.384888
26.56 621.707092
26.57 626.253662
26.58 629.297119
26.59 626.285339
26.60 630.129333
26.61 626.879456
26.62 623.602905
26.63 625.768127
26.64 635.078186
26.65 641.551941
26.66 637.51947
26.67 629.62561
26.68 624.437012
26.69 617.126099
26.70 608.529846
26.71 610.409058
26.72 609.574646
26.73 609.835754
26.74 611.415039
26.75 611.795471
26.76 619.212463
26.77 621.109802
26.78 622.248291
26.79 621.158997
26.80 621.506714
26.81 622.709412
26.82 620.336243
26.83 623.232422
26.84 623.142883
26.85 622.242859
26.86 625.183716
26.87 622.053406
26.88 620.562683
26.89 620.885864
26.90 610.807983
26.91 610.238708
26.92 614.32019
26.93 614.296631
26.94 616.140686
26.95 620.057495
26.96 626.173828
26.97 629.514099
26.98 625.905518
26.99 622.229797
27.00 619.259766
27.01 614.903198
27.02 619.753784
27.03 626.175598
27.04 624.671875
27.05 627.84491
27.06 623.766846
27.07 613.51123
27.08 616.993469
27.09 620.987244
27.10 615.402283
27.11 612.768005
27.12 621.56012
27.13 621.770935
27.14 616.758667
27.15 614.459473
27.16 614.96051
27.17 618.536011
27.18 614.397034
27.19 603.993958
27.20 602.37384
27.21 603.311218
27.22 601.944885
27.23 607.300781
27.24 614.120972
27.25 618.575684
27.26 619.641663
27.27 619.866516
27.28 623.456848
27.29 615.510986
27.30 614.88385
27.31 621.03009
27.32 621.556396
27.33 621.232544
27.34 619.983521
27.35 622.130127
27.36 624.568298
27.37 629.459595
27.38 623.476563
27.39 613.242859
27.40 616.633179
27.41 620.487061
27.42 619.401489
27.43 617.679321
27.44 615.939392
27.45 618.649231
27.46 620.676697
27.47 626.478821
27.48 626.774841
27.49 628.208069
27.50 629.025269
27.51 625.780945
27.52 620.004761
27.53 614.577881
27.54 608.435181
27.55 608.478577
27.56 611.977173
27.57 612.951294
27.58 611.413208
27.59 607.968018
27.60 604.756836
27.61 613.023987
27.62 617.306641
27.63 614.507813
27.64 616.342773
27.65 625.694824
27.66 630.428894
27.67 629.849121
27.68 627.72583
27.69 628.20813
27.70 622.136658
27.71 618.178162
27.72 616.086243
27.73 617.240051
27.74 617.700623
27.75 618.685974
27.76 616.378235
27.77 610.179565
27.78 613.632385
27.79 621.746887
27.80 626.36554
27.81 623.339539
27.82 619.717712
27.83 620.263306
27.84 619.368835
27.85 617.828003
27.86 616.977783
27.87 616.374573
27.88 617.69104
27.89 614.615479
27.90 609.672058
27.91 607.360962
27.92 613.480164
27.93 615.075745
27.94 609.641174
27.95 605.871826
27.96 603.210083
27.97 600.77533
27.98 607.942444
27.99 618.061096
28.00 622.643799
28.01 621.891174
28.02 617.049988
28.03 615.76062
28.04 620.873291
28.05 619.099731
28.06 621.003967
28.07 620.703247
28.08 614.121216
28.09 611.854858
28.10 615.405334
28.11 623.173645
28.12 625.801514
28.13 616.930237
28.14 608.564026
28.15 606.537048
28.16 603.647278
28.17 602.235901
28.18 610.417358
28.19 617.501038
28.20 616.033264
28.21 616.552551
28.22 621.207764
28.23 620.874695
28.24 615.931885
28.25 606.901978
28.26 598.419922
28.27 603.60376
28.28 612.838684
28.29 615.65509
28.30 619.631409
28.31 619.099609
28.32 614.87854
28.33 615.0896
28.34 612.471069
28.35 608.525146
28.36 609.105713
28.37 610.997803
28.38 615.422974
28.39 621.391418
28.40 623.590454
28.41 623.307434
28.42 622.93042
28.43 624.222229
28.44 627.325928
28.45 626.397461
28.46 621.630432
28.47 624.069763
28.48 632.815552
28.49 632.963684
28.50 625.992615
28.51 622.995544
28.52 621.41864
28.53 617.758667
28.54 616.528076
28.55 621.568909
28.56 628.56189
28.57 626.736206
28.58 627.459106
28.59 628.627686
28.60 633.190674
28.61 640.217896
28.62 636.820374
28.63 634.578735
28.64 641.325012
28.65 645.86084
28.66 647.151733
28.67 657.470032
28.68 660.853027
28.69 664.168701
28.70 667.949829
28.71 664.381836
28.72 668.111694
28.73 674.188904
28.74 673.375427
28.75 675.808838
28.76 680.529602
28.77 686.029358
28.78 691.850403
28.79 691.236328
28.80 697.085754
28.81 703.730347
28.82 714.408508
28.83 713.74646
28.84 701.467224
28.85 703.299194
28.86 703.763367
28.87 703.455139
28.88 715.266296
28.89 721.494141
28.90 726.057068
28.91 732.626465
28.92 735.423706
28.93 736.477417
28.94 725.087402
28.95 716.136719
28.96 727.247009
28.97 732.80658
28.98 720.096497
28.99 707.982178
29.00 702.121033
29.01 706.226196
29.02 703.773743
29.03 702.283752
29.04 703.523254
29.05 694.39032
29.06 690.316284
29.07 685.387024
29.08 682.808044
29.09 681.709656
29.10 676.728394
29.11 666.421753
29.12 664.69873
29.13 662.37085
29.14 654.581055
29.15 648.878967
29.16 647.240295
29.17 642.970276
29.18 644.199402
29.19 655.438721
29.20 661.016785
29.21 653.587891
29.22 646.25824
29.23 645.795532
29.24 645.989685
29.25 645.838867
29.26 643.158691
29.27 640.200989
29.28 634.527893
29.29 628.296021
29.30 626.980896
29.31 628.051392
29.32 622.260681
29.33 619.765564
29.34 627.61499
29.35 629.091858
29.36 623.621521
29.37 617.012146
29.38 614.609253
29.39 614.86615
29.40 620.921387
29.41 622.093201
29.42 612.492126
29.43 604.778076
29.44 607.834778
29.45 616.936523
29.46 621.295471
29.47 615.910767
29.48 612.65741
29.49 614.88916
29.50 615.357178
29.51 620.071472
29.52 619.744385
29.53 611.927917
29.54 606.443604
29.55 606.923828
29.56 613.574036
29.57 619.456055
29.58 615.461609
29.59 612.487183
29.60 615.082947
29.61 616.560669
29.62 615.191162
29.63 612.061157
29.64 614.044495
29.65 611.87561
29.66 599.703308
29.67 597.036987
29.68 603.975525
29.69 602.367188
29.70 600.821289
29.71 597.065613
29.72 592.866577
29.73 600.098999
29.74 603.344971
29.75 603.484253
29.76 610.916199
29.77 615.536011
29.78 606.793274
29.79 596.164734
29.80 591.211487
29.81 596.388611
29.82 598.091431
29.83 598.159668
29.84 598.033508
29.85 605.670349
29.86 620.081299
29.87 614.814392
29.88 608.864929
29.89 606.250793
29.90 601.844849
29.91 598.430237
29.92 595.850769
29.93 594.254089
29.94 591.754333
29.95 594.640686
29.96 597.877258
29.97 598.959045
29.98 606.015015
29.99 605.479492
30.00 598.845093
30.01 593.383972
30.02 594.117859
30.03 592.303833
30.04 587.980774
30.05 589.308716
30.06 589.612122
30.07 586.474854
30.08 590.508118
30.09 595.040344
30.10 593.775696
30.11 595.897644
30.12 599.24939
30.13 601.830994
30.14 608.175171
30.15 610.822937
30.16 607.121765
30.17 601.799744
30.18 595.596802
30.19 589.720154
30.20 593.128723
30.21 598.472717
30.22 601.197205
30.23 605.639526
30.24 600.553894
30.25 592.184875
30.26 588.149536
30.27 590.51886
30.28 596.174438
30.29 591.155334
30.30 595.023743
30.31 596.133362
30.32 596.367432
30.33 599.574219
30.34 604.210388
30.35 604.560181
30.36 604.838074
30.37 608.77655
30.38 606.927795
30.39 607.504761
30.40 610.496826
30.41 607.354675
30.42 607.712769
30.43 610.148254
30.44 600.108398
30.45 601.128052
30.46 608.921021
30.47 601.566528
30.48 596.473999
30.49 599.323364
30.50 597.736938
30.51 593.101685
30.52 602.115417
30.53 610.692017
30.54 615.414001
30.55 620.563843
30.56 624.358948
30.57 633.742004
30.58 634.639771
30.59 634.035095
30.60 639.285461
30.61 642.20752
30.62 646.540344
30.63 649.665283
30.64 653.168945
30.65 650.06073
30.66 653.309265
30.67 656.81604
30.68 648.166016
30.69 648.660461
30.70 662.303284
30.71 665.874207
30.72 663.168945
30.73 665.544067
30.74 668.826355
30.75 665.480347
30.76 665.149719
30.77 664.99939
30.78 657.733154
30.79 661.151733
30.80 669.56842
30.81 674.268555
30.82 678.687622
30.83 675.603455
30.84 660.58429
30.85 651.021179
30.86 651.371094
30.87 646.790039
30.88 651.136719
30.89 661.196655
30.90 648.436035
30.91 644.580017
30.92 654.489807
30.93 652.873291
30.94 645.124695
30.95 642.579895
30.96 638.651733
30.97 629.591492
30.98 629.156494
30.99 623.740295
31.00 622.145874
31.01 624.591736
31.02 622.528442
31.03 621.097534
31.04 615.574219
31.05 612.867798
31.06 607.512756
31.07 602.012024
31.08 600.622192
31.09 599.125244
31.10 594.754028
31.11 584.031738
31.12 585.281616
31.13 590.98053
31.14 592.240234
31.15 587.813416
31.16 584.144714
31.17 580.750549
31.18 582.483337
31.19 587.688171
31.20 592.575134
31.21 589.766541
31.22 585.740417
31.23 586.161438
31.24 584.686462
31.25 578.552917
31.26 569.961182
31.27 560.469666
31.28 563.244629
31.29 565.85321
31.30 567.072205
31.31 566.302429
31.32 563.928589
31.33 563.296387
31.34 565.238708
31.35 564.325012
31.36 570.992554
31.37 576.746582
31.38 576.282532
31.39 567.14502
31.40 564.883789
31.41 566.621338
31.42 568.275269
31.43 565.438904
31.44 562.553772
31.45 566.12561
31.46 567.952332
31.47 569.301819
31.48 563.990601
31.49 559.819031
31.50 561.83252
31.51 561.331604
31.52 558.628967
31.53 554.462341
31.54 551.68866
31.55 553.000977
31.56 557.634705
31.57 563.878723
31.58 559.569397
31.59 554.019104
31.60 553.262878
31.61 560.465881
31.62 560.767517
31.63 556.816345
31.64 557.658203
31.65 558.888367
31.66 553.355042
31.67 553.301147
31.68 560.157593
31.69 566.722412
31.70 562.037048
31.71 552.782288
31.72 549.777832
31.73 548.850037
31.74 540.392029
31.75 536.867432
31.76 540.556152
31.77 547.710144
31.78 553.466492
31.79 551.938049
31.80 548.611938
31.81 549.510315
31.82 551.368042
31.83 550.425964
31.84 550.694397
31.85 552.879333
31.86 557.296753
31.87 554.830017
31.88 548.817627
31.89 549.529724
31.90 546.502136
31.91 541.349182
31.92 544.297241
31.93 554.09552
31.94 560.653442
31.95 561.36676
31.96 559.475037
31.97 559.18689
31.98 558.096069
31.99 556.905701
32.00 559.67334
32.01 549.306763
32.02 545.199097
32.03 549.741882
32.04 550.213806
32.05 553.86145
32.06 556.452271
32.07 557.874023
32.08 561.282593
32.09 563.476807
32.10 561.538391
32.11 559.347961
32.12 554.340515
32.13 552.654419
32.14 552.972595
32.15 555.212708
32.16 556.420715
32.17 560.432739
32.18 561.723755
32.19 557.666016
32.20 563.7995
32.21 572.501343
32.22 570.643433
32.23 565.372009
32.24 568.210815
32.25 567.352478
32.26 571.220154
32.27 573.512939
32.28 569.852539
32.29 573.766541
32.30 579.142761
32.31 579.03064
32.32 578.543945
32.33 573.905701
32.34 570.863281
32.35 572.920898
32.36 569.625488
32.37 568.269287
32.38 570.391174
32.39 567.808655
32.40 565.953064
32.41 562.56189
32.42 561.300598
32.43 564.270752
32.44 575.059753
32.45 576.832153
32.46 572.192932
32.47 579.335693
32.48 579.09967
32.49 565.443298
32.50 561.713135
32.51 558.462585
32.52 553.65094
32.53 558.562012
32.54 561.994995
32.55 554.297485
32.56 548.50354
32.57 546.691528
32.58 548.484192
32.59 553.585938
32.60 553.843872
32.61 553.006958
32.62 555.474487
32.63 555.563965
32.64 552.285095
32.65 549.850891
32.66 545.378113
32.67 538.693726
32.68 534.725281
32.69 534.841492
32.70 536.841187
32.71 543.480652
32.72 548.075989
32.73 554.985107
32.74 561.283997
32.75 550.675903
32.76 534.864685
32.77 531.522705
32.78 528.477478
32.79 529.942444
32.80 531.092896
32.81 532.391846
32.82 538.361572
32.83 538.054138
32.84 532.333008
32.85 528.369263
32.86 521.09552
32.87 514.661926
32.88 516.989014
32.89 522.029846
32.90 527.454102
32.91 535.75824
32.92 534.387451
32.93 521.267273
32.94 520.456604
32.95 521.68042
32.96 514.205017
32.97 515.684937
32.98 516.67334
32.99 517.58252
33.00 519.397095
33.01 522.607666
33.02 526.606873
33.03 529.836243
33.04 530.761841
33.05 524.983093
33.06 522.272217
33.07 525.161255
33.08 526.588928
33.09 520.885559
33.10 520.044495
33.11 522.194275
33.12 518.887817
33.13 517.636108
33.14 512.154907
33.15 503.558502
33.16 504.414734
33.17 508.185303
33.18 509.854126
33.19 504.913605
33.20 496.022522
33.21 501.843353
33.22 515.972351
33.23 520.334412
33.24 521.062927
33.25 515.529602
33.26 505.530518
33.27 504.08255
33.28 504.224365
33.29 502.848602
33.30 503.612244
33.31 507.829254
33.32 509.471771
33.33 511.284302
33.34 507.218964
33.35 508.790955
33.36 510.460602
33.37 508.77887
33.38 513.102722
33.39 510.972412
33.40 506.41864
33.41 506.080811
33.42 499.831146
33.43 500.669189
33.44 506.673889
33.45 508.035309
33.46 503.986603
33.47 503.791901
33.48 505.361053
33.49 503.685425
33.50 504.222717
33.51 505.2323
33.52 504.119659
33.53 499.305817
33.54 494.631104
33.55 496.593994
33.56 498.125549
33.57 499.189728
33.58 496.507385
33.59 490.437134
33.60 485.580627
33.61 482.787933
33.62 483.082123
33.63 484.858124
33.64 486.308716
33.65 489.580414
33.66 491.591248
33.67 488.751465
33.68 486.374512
33.69 489.05658
33.70 489.7388
33.71 487.251617
33.72 486.869202
33.73 483.259003
33.74 483.516296
33.75 491.785736
33.76 498.063904
33.77 498.861115
33.78 498.203644
33.79 492.322327
33.80 481.899475
33.81 481.063904
33.82 487.17868
33.83 487.950745
33.84 488.882935
33.85 492.470825
33.86 495.797394
33.87 500.852997
33.88 506.816498
33.89 505.989746
33.90 500.682404
33.91 494.061676
33.92 495.279907
33.93 496.278473
33.94 492.091797
33.95 495.26947
33.96 492.751587
33.97 480.896393
33.98 482.59967
33.99 486.397095
34.00 482.030701
34.01 483.185822
34.02 481.15802
34.03 478.672363
34.04 479.450195
34.05 479.778534
34.06 481.642181
34.07 487.615051
34.08 491.282745
34.09 488.615265
34.10 489.407501
34.11 488.625641
34.12 490.951202
34.13 486.87146
34.14 480.084503
34.15 483.115601
34.16 486.84375
34.17 489.214111
34.18 488.527252
34.19 487.447052
34.20 490.913666
34.21 498.533234
34.22 495.87326
34.23 489.710571
34.24 490.12796
34.25 493.628632
34.26 496.605103
34.27 495.701477
34.28 491.621246
34.29 491.319153
34.30 488.348083
34.31 487.258911
34.32 486.390503
34.33 478.792816
34.34 477.620422
34.35 486.254395
34.36 487.251343
34.37 491.009644
34.38 493.019745
34.39 490.82782
34.40 492.774139
34.41 493.816101
34.42 492.313416
34.43 487.970062
34.44 485.271332
34.45 488.397675
34.46 485.237488
34.47 485.493195
34.48 487.154083
34.49 477.865051
34.50 477.237976
34.51 485.686981
34.52 492.948181
34.53 497.595367
34.54 491.807526
34.55 484.059601
34.56 483.32782
34.57 482.954315
34.58 482.486694
34.59 486.623413
34.60 487.865387
34.61 483.519165
34.62 489.306152
34.63 496.864532
34.64 494.886475
34.65 483.513947
34.66 475.070129
34.67 471.279694
34.68 467.877075
34.69 468.762421
34.70 472.735443
34.71 474.663177
34.72 478.162872
34.73 476.264343
34.74 472.887787
34.75 470.959534
34.76 466.141602
34.77 468.265503
34.78 476.340698
34.79 474.668549
34.80 467.52951
34.81 466.289063
34.82 463.471924
34.83 460.434753
34.84 465.268066
34.85 465.060883
34.86 463.162903
34.87 465.921387
34.88 464.557617
34.89 464.56131
34.90 464.94577
34.91 463.311554
34.92 463.883972
34.93 460.334686
34.94 457.342072
34.95 458.978699
34.96 457.137787
34.97 453.150055
34.98 453.211212
34.99 456.60022
35.00 453.987518
35.01 449.485229
35.02 447.477631
35.03 445.252167
35.04 444.169586
35.05 449.186249
35.06 452.431702
35.07 455.511108
35.08 457.299805
35.09 453.146729
35.10 445.741455
35.11 444.3591
35.12 445.246948
35.13 443.153503
35.14 439.326202
35.15 439.836029
35.16 446.027588
35.17 454.645844
35.18 456.055267
35.19 449.50238
35.20 447.744537
35.21 449.211304
35.22 449.492157
35.23 443.564362
35.24 441.323059
35.25 441.707733
35.26 445.944244
35.27 445.804382
35.28 442.052246
35.29 440.60376
35.30 438.139191
35.31 440.522095
35.32 444.913849
35.33 439.669373
35.34 439.570618
35.35 435.482269
35.36 430.155762
35.37 437.29483
35.38 443.516571
35.39 443.574097
35.40 440.411804
35.41 438.339355
35.42 438.705566
35.43 433.68512
35.44 429.717896
35.45 430.722656
35.46 432.411926
35.47 434.534271
35.48 436.203461
35.49 433.480377
35.50 436.047821
35.51 441.142578
35.52 440.78241
35.53 434.512909
35.54 426.628265
35.55 426.624908
35.56 431.321838
35.57 431.512787
35.58 429.034821
35.59 427.63559
35.60 421.130463
35.61 414.068665
35.62 419.369629
35.63 423.747223
35.64 421.072662
35.65 422.025085
35.66 422.542877
35.67 420.888153
35.68 422.854767
35.69 427.008667
35.70 431.0961
35.71 432.235168
35.72 434.395874
35.73 430.437195
35.74 423.13678
35.75 421.61377
35.76 426.156067
35.77 424.148834
35.78 423.055054
35.79 421.963074
35.80 419.105042
35.81 419.456146
35.82 417.943329
35.83 413.784882
35.84 413.114868
35.85 418.165833
35.86 420.01355
35.87 416.531097
35.88 414.38504
35.89 408.945679
35.90 403.898804
35.91 411.083344
35.92 422.289154
35.93 422.561798
35.94 419.594482
35.95 417.407593
35.96 418.034332
35.97 415.238495
35.98 412.934082
35.99 413.059021
36.00 414.671356
36.01 417.197632
36.02 420.072357
36.03 416.552368
36.04 411.207123
36.05 407.198425
36.06 403.38385
36.07 405.40451
36.08 408.926392
36.09 407.858612
36.10 408.248383
36.11 407.434845
36.12 402.397919
36.13 396.846466
36.14 396.362
36.15 399.556213
36.16 400.668335
36.17 399.763458
36.18 403.490173
36.19 401.96051
36.20 402.571777
36.21 404.941589
36.22 405.554199
36.23 403.855103
36.24 401.011597
36.25 401.383484
36.26 404.579834
36.27 404.735535
36.28 396.981598
36.29 393.497833
36.30 396.971619
36.31 399.041595
36.32 405.186127
36.33 409.373627
36.34 407.672394
36.35 408.037262
36.36 414.954071
36.37 410.450165
36.38 394.522552
36.39 389.481903
36.40 397.59024
36.41 404.905884
36.42 403.570129
36.43 395.147797
36.44 389.251526
36.45 389.058136
36.46 393.621979
36.47 395.778015
36.48 393.825409
36.49 392.255951
36.50 388.812408
36.51 386.635468
36.52 392.486725
36.53 393.794006
36.54 390.361145
36.55 390.831512
36.56 392.789337
36.57 395.680267
36.58 400.46933
36.59 397.027069
36.60 389.977325
36.61 387.268646
36.62 388.872803
36.63 391.707458
36.64 388.3461
36.65 388.173645
36.66 389.957092
36.67 391.057739
36.68 393.180084
36.69 395.134491
36.70 395.83075
36.71 395.056946
36.72 388.191193
36.73 378.601593
36.74 378.601196
36.75 382.874542
36.76 383.641968
36.77 385.08371
36.78 390.160583
36.79 389.069611
36.80 386.336761
36.81 382.658386
36.82 380.765503
36.83 385.55191
36.84 386.058685
36.85 390.270081
36.86 388.322571
36.87 376.516693
36.88 371.232971
36.89 374.791626
36.90 383.86676
36.91 392.539703
36.92 389.394501
36.93 382.178558
36.94 383.976227
36.95 381.858215
36.96 374.89743
36.97 374.686859
36.98 371.900238
36.99 366.495728
37.00 365.395447
37.01 368.623596
37.02 371.595367
37.03 371.784576
37.04 374.519257
37.05 377.899261
37.06 380.026123
37.07 380.380157
37.08 380.808868
37.09 379.502869
37.10 380.61554
37.11 380.422455
37.12 379.764832
37.13 386.469269
37.14 389.413849
37.15 386.145966
37.16 382.735229
37.17 378.917969
37.18 377.934875
37.19 381.95285
37.20 383.876007
37.21 380.284821
37.22 380.822784
37.23 382.753052
37.24 378.91153
37.25 376.260651
37.26 376.971771
37.27 378.226379
37.28 380.668121
37.29 381.979309
37.30 376.840546
37.31 372.824615
37.32 370.25174
37.33 365.084503
37.34 364.549622
37.35 370.456757
37.36 371.497681
37.37 369.798065
37.38 372.477234
37.39 377.367035
37.40 381.548431
37.41 381.085327
37.42 377.659546
37.43 376.268829
37.44 374.736572
37.45 375.685547
37.46 376.958862
37.47 377.263733
37.48 378.386047
37.49 376.625916
37.50 372.504913
37.51 368.377533
37.52 362.616241
37.53 367.672516
37.54 375.705414
37.55 376.20755
37.56 377.585907
37.57 376.492798
37.58 370.185669
37.59 368.630341
37.60 372.522064
37.61 373.256439
37.62 371.619354
37.63 372.490265
37.64 373.371033
37.65 372.941467
37.66 368.277954
37.67 364.98761
37.68 365.942413
37.69 364.168121
37.70 367.572327
37.71 367.406097
37.72 367.184052
37.73 373.054596
37.74 371.348175
37.75 373.362854
37.76 372.418182
37.77 365.18573
37.78 365.219818
37.79 374.534882
37.80 381.200867
37.81 381.777161
37.82 377.017731
37.83 370.181427
37.84 367.861023
37.85 369.378845
37.86 370.783539
37.87 370.742737
37.88 363.542358
37.89 358.384796
37.90 358.637817
37.91 360.066711
37.92 361.450043
37.93 367.391541
37.94 374.43335
37.95 371.000366
37.96 360.108276
37.97 353.621124
37.98 355.342346
37.99 363.963013
38.00 363.465515
38.01 358.785339
38.02 360.727081
38.03 359.324158
38.04 359.45639
38.05 354.55835
38.06 353.241913
38.07 357.217041
38.08 362.000946
38.09 366.630615
38.10 364.166534
38.11 361.004547
38.12 359.172302
38.13 363.132996
38.14 366.475189
38.15 365.265472
38.16 367.663116
38.17 369.002228
38.18 368.207336
38.19 364.723846
38.20 363.405273
38.21 367.096893
38.22 372.830017
38.23 373.70993
38.24 364.788849
38.25 359.634857
38.26 367.213562
38.27 361.641296
38.28 356.761932
38.29 361.786133
38.30 361.660126
38.31 363.891296
38.32 366.882751
38.33 367.893707
38.34 364.475037
38.35 362.135742
38.36 365.976868
38.37 367.956512
38.38 366.235718
38.39 367.843964
38.40 368.716156
38.41 371.411163
38.42 376.243591
38.43 376.570007
38.44 374.809662
38.45 369.830597
38.46 370.233643
38.47 370.979889
38.48 372.518219
38.49 373.495911
38.50 370.551575
38.51 373.101013
38.52 378.781342
38.53 375.780731
38.54 372.985413
38.55 374.602264
38.56 377.124146
38.57 377.803253
38.58 378.490997
38.59 380.899261
38.60 381.949005
38.61 376.535431
38.62 372.999054
38.63 374.341614
38.64 377.108246
38.65 375.844574
38.66 373.041046
38.67 373.79953
38.68 378.012115
38.69 378.777588
38.70 376.417297
38.71 376.38028
38.72 370.328217
38.73 366.692413
38.74 364.426025
38.75 358.057312
38.76 357.943756
38.77 363.461731
38.78 370.253815
38.79 371.878998
38.80 372.117462
38.81 369.401672
38.82 366.968689
38.83 365.051392
38.84 363.341736
38.85 364.057465
38.86 361.885162
38.87 363.573456
38.88 363.166016
38.89 357.801788
38.90 359.528931
38.91 362.998016
38.92 364.259979
38.93 365.274902
38.94 362.421387
38.95 354.6073
38.96 355.499634
38.97 355.842651
38.98 351.726593
38.99 353.474304
39.00 358.228485
39.01 358.361359
39.02 354.577362
39.03 358.110657
39.04 357.346802
39.05 356.862457
39.06 364.316193
39.07 367.176361
39.08 362.15741
39.09 364.500671
39.10 365.102997
39.11 361.506226
39.12 358.704559
39.13 355.539124
39.14 359.104218
39.15 363.058044
39.16 359.688751
39.17 358.123627
39.18 363.960602
39.19 365.156494
39.20 364.628784
39.21 361.874054
39.22 357.891022
39.23 359.629028
39.24 361.125336
39.25 359.090729
39.26 362.315552
39.27 364.294495
39.28 360.659576
39.29 358.971954
39.30 354.578857
39.31 351.330872
39.32 355.325806
39.33 354.939514
39.34 357.249847
39.35 357.082062
39.36 356.686249
39.37 364.090698
39.38 369.04538
39.39 371.669861
39.40 373.226898
39.41 371.304474
39.42 365.489899
39.43 360.993073
39.44 365.693604
39.45 364.258942
39.46 361.441162
39.47 359.755981
39.48 356.138947
39.49 356.7854
39.50 358.302032
39.51 355.212555
39.52 355.458099
39.53 354.829681
39.54 357.232147
39.55 354.907776
39.56 352.019135
39.57 360.206177
39.58 368.794189
39.59 370.657196
39.60 365.4646
39.61 360.072327
39.62 359.250885
39.63 357.990814
39.64 355.975922
39.65 354.683014
39.66 359.900696
39.67 367.062439
39.68 363.661896
39.69 360.729828
39.70 359.87558
39.71 357.196869
39.72 352.964905
39.73 352.893524
39.74 354.526611
39.75 352.719299
39.76 351.633118
39.77 352.692871
39.78 350.109467
39.79 346.901123
39.80 347.940826
39.81 349.440399
39.82 346.738434
39.83 344.293335
39.84 341.103058
39.85 337.74585
39.86 339.788147
39.87 341.564545
39.88 341.478577
39.89 343.412109
39.90 351.179504
39.91 351.766907
39.92 350.451599
39.93 349.107513
39.94 346.619781
39.95 341.190918
39.96 340.391602
39.97 344.794006
39.98 344.763672
39.99 343.102936
40.00 343.840881
40.01 342.476593
40.02 341.750488
40.03 338.362946
40.04 339.5112
40.05 345.141113
40.06 341.411713
40.07 336.20636
40.08 337.98645
40.09 338.77832
40.10 337.258514
40.11 337.998352
40.12 339.458832
40.13 341.788727
40.14 343.063293
40.15 339.851471
40.16 333.978455
40.17 337.247681
40.18 341.345367
40.19 338.828949
40.20 337.380615
40.21 333.66452
40.22 334.776215
40.23 340.397919
40.24 342.894989
40.25 342.210236
40.26 339.033752
40.27 339.583191
40.28 338.156799
40.29 336.312347
40.30 340.062317
40.31 343.682587
40.32 346.018555
40.33 343.386658
40.34 341.797363
40.35 341.630737
40.36 342.122833
40.37 343.417419
40.38 342.842316
40.39 340.16452
40.40 341.136383
40.41 345.633392
40.42 347.703552
40.43 344.603394
40.44 339.813599
40.45 336.447174
40.46 335.87674
40.47 334.119415
40.48 336.52063
40.49 340.788513
40.50 337.87265
40.51 337.028564
40.52 339.970703
40.53 341.528046
40.54 340.286957
40.55 340.991119
40.56 336.710785
40.57 335.073669
40.58 334.995087
40.59 333.854218
40.60 334.164032
40.61 330.645538
40.62 331.095734
40.63 336.234467
40.64 339.419769
40.65 344.024811
40.66 346.443604
40.67 339.123199
40.68 334.812927
40.69 336.367523
40.70 339.799683
40.71 341.485077
40.72 341.368835
40.73 343.852875
40.74 342.329224
40.75 341.233002
40.76 340.778656
40.77 336.858276
40.78 339.066498
40.79 341.403839
40.80 344.022583
40.81 341.516357
40.82 336.43808
40.83 335.448914
40.84 335.215759
40.85 332.117615
40.86 330.69397
40.87 333.251434
40.88 340.433533
40.89 340.973022
40.90 334.524017
40.91 337.437073
40.92 338.095551
40.93 338.46756
40.94 339.922852
40.95 342.459778
40.96 343.234222
40.97 344.476471
40.98 345.243408
40.99 342.986816
41.00 345.079987
41.01 343.033295
41.02 343.358154
41.03 342.645782
41.04 345.944977
41.05 345.600677
41.06 340.911224
41.07 339.03949
41.08 336.741547
41.09 337.941742
41.10 339.496277
