!@!!GADDS PLOTSO FILE: Chi integration type
!@!!Title/SampleName: ML_MAPbX3
!@!!User: NREL
!@!!Site: NREL SERF C211; SN 2510
!@!!Frame: 081022_MLProject_000_009.gfrm
!@!!Wavelengths    1.54184   1.54056   1.54439
!@!!Frame angles: 2Theta: 28.000 Omega: 5.000 Phi: 0.000 Chi: 90.000
!@!!Integration range: 2Theta: 10.000 to 41.100  Gamma: -120.400 to -60.400
!@!!Integration method: bin normalized
!@!N
!@!SS
!@!M
!@!L 0.0 0.0 0.0 0.0
!@!XDegrees
!@!YCounts
10.00 192.65451
10.01 201.924377
10.02 206.720184
10.03 195.978806
10.04 190.276352
10.05 196.69043
10.06 198.044556
10.07 202.131058
10.08 201.750519
10.09 198.191391
10.10 196.013519
10.11 196.914841
10.12 199.42688
10.13 200.433945
10.14 207.086456
10.15 204.388977
10.16 203.551743
10.17 199.335648
10.18 194.991074
10.19 195.901688
10.20 197.384262
10.21 200.126785
10.22 198.945206
10.23 197.205215
10.24 200.497833
10.25 206.280243
10.26 197.162186
10.27 206.375015
10.28 210.576675
10.29 201.507004
10.30 211.41452
10.31 210.946136
10.32 204.563766
10.33 207.647919
10.34 202.909958
10.35 199.724777
10.36 203.471573
10.37 208.73233
10.38 212.623566
10.39 206.753021
10.40 206.69191
10.41 209.882187
10.42 209.797546
10.43 205.676804
10.44 201.929962
10.45 211.111237
10.46 218.719849
10.47 216.264404
10.48 213.886642
10.49 216.052414
10.50 217.049484
10.51 211.698944
10.52 211.303375
10.53 209.839859
10.54 215.011139
10.55 223.085159
10.56 214.911911
10.57 205.577881
10.58 206.234406
10.59 213.180725
10.60 218.551208
10.61 219.523087
10.62 214.544235
10.63 214.959015
10.64 214.503448
10.65 212.311905
10.66 214.593704
10.67 211.011154
10.68 211.355438
10.69 226.62706
10.70 235.370758
10.71 224.073318
10.72 221.753464
10.73 221.626099
10.74 215.754944
10.75 218.337555
10.76 216.218689
10.77 213.794968
10.78 214.002457
10.79 211.109253
10.80 212.133713
10.81 215.869476
10.82 217.327423
10.83 223.019516
10.84 223.592896
10.85 220.592133
10.86 225.573334
10.87 221.796982
10.88 216.192596
10.89 208.491562
10.90 211.510101
10.91 214.297775
10.92 212.687454
10.93 211.575989
10.94 206.69519
10.95 212.631821
10.96 214.62326
10.97 218.251678
10.98 220.289719
10.99 220.323303
11.00 224.489853
11.01 229.226654
11.02 229.111069
11.03 223.947006
11.04 222.574371
11.05 222.234604
11.06 219.785995
11.07 218.219879
11.08 214.476379
11.09 212.326614
11.10 223.71405
11.11 227.302292
11.12 231.424591
11.13 236.108307
11.14 240.070557
11.15 245.467926
11.16 239.748962
11.17 234.372604
11.18 235.853226
11.19 231.1642
11.20 230.001175
11.21 235.089081
11.22 231.425186
11.23 233.993103
11.24 233.897141
11.25 233.216919
11.26 235.004242
11.27 233.023956
11.28 230.422836
11.29 223.341415
11.30 223.020233
11.31 225.295425
11.32 221.497482
11.33 222.990906
11.34 232.751984
11.35 237.39801
11.36 234.214966
11.37 228.775085
11.38 236.263016
11.39 239.929153
11.40 228.338913
11.41 229.673462
11.42 235.242401
11.43 228.772308
11.44 221.463135
11.45 227.717194
11.46 241.223648
11.47 247.196808
11.48 246.850388
11.49 237.351715
11.50 232.831131
11.51 228.570419
11.52 230.559998
11.53 239.661987
11.54 244.867828
11.55 246.536636
11.56 235.362411
11.57 234.272858
11.58 240.443649
11.59 234.774231
11.60 234.910217
11.61 237.329956
11.62 232.229446
11.63 229.777893
11.64 227.653366
11.65 230.301315
11.66 237.959534
11.67 239.602448
11.68 243.192078
11.69 239.144577
11.70 237.37619
11.71 237.62619
11.72 237.709152
11.73 236.815414
11.74 237.93103
11.75 242.193909
11.76 245.213043
11.77 248.470215
11.78 247.595703
11.79 245.975693
11.80 240.856644
11.81 238.346252
11.82 230.038193
11.83 226.640427
11.84 236.070007
11.85 247.631851
11.86 256.913208
11.87 257.200226
11.88 250.170654
11.89 245.858185
11.90 250.893631
11.91 255.449463
11.92 258.527496
11.93 257.196533
11.94 247.542984
11.95 246.069992
11.96 249.986542
11.97 246.956635
11.98 243.669968
11.99 247.210739
12.00 253.733017
12.01 251.318176
12.02 247.634842
12.03 248.726746
12.04 246.426758
12.05 245.066788
12.06 248.120056
12.07 250.418167
12.08 252.880035
12.09 258.979309
12.10 265.576599
12.11 262.838898
12.12 253.309311
12.13 256.449646
12.14 257.103821
12.15 256.398224
12.16 264.235229
12.17 267.435089
12.18 266.533264
12.19 269.611084
12.20 261.644592
12.21 256.063385
12.22 259.554291
12.23 268.037018
12.24 276.386902
12.25 278.683624
12.26 279.509491
12.27 272.815033
12.28 260.745972
12.29 267.128082
12.30 276.270691
12.31 273.973572
12.32 273.581696
12.33 274.840118
12.34 282.227234
12.35 291.793274
12.36 287.628326
12.37 277.358246
12.38 277.987
12.39 277.522766
12.40 274.591156
12.41 274.736603
12.42 282.245087
12.43 288.601257
12.44 291.164703
12.45 295.536133
12.46 296.21283
12.47 302.504517
12.48 300.870667
12.49 290.712067
12.50 294.873596
12.51 292.124817
12.52 292.04599
12.53 297.628418
12.54 303.467743
12.55 306.518127
12.56 301.973999
12.57 301.2677
12.58 298.749268
12.59 299.453735
12.60 301.95285
12.61 299.959473
12.62 301.73288
12.63 308.691223
12.64 310.683136
12.65 311.92395
12.66 305.998871
12.67 303.365356
12.68 309.097687
12.69 314.25177
12.70 301.919006
12.71 291.435516
12.72 284.723969
12.73 281.024567
12.74 286.727753
12.75 282.458221
12.76 286.80542
12.77 291.563629
12.78 287.875793
12.79 290.653687
12.80 291.888519
12.81 290.385651
12.82 287.367126
12.83 285.933502
12.84 286.86908
12.85 285.040009
12.86 295.376953
12.87 300.154816
12.88 288.832031
12.89 286.269409
12.90 289.379608
12.91 284.297607
12.92 277.951752
12.93 271.305969
12.94 265.504974
12.95 264.02771
12.96 271.937897
12.97 275.035797
12.98 265.202087
12.99 272.830414
13.00 281.924072
13.01 279.183014
13.02 280.977783
13.03 276.224396
13.04 265.923462
13.05 266.696686
13.06 271.469513
13.07 267.234314
13.08 266.607391
13.09 271.740265
13.10 278.329773
13.11 279.985321
13.12 272.691315
13.13 266.016083
13.14 261.056183
13.15 266.793762
13.16 279.509155
13.17 277.922913
13.18 272.217834
13.19 274.490387
13.20 275.431091
13.21 273.391205
13.22 269.224854
13.23 262.311951
13.24 261.675964
13.25 265.731232
13.26 270.346008
13.27 266.592682
13.28 264.655945
13.29 266.629211
13.30 269.677063
13.31 277.800751
13.32 275.803284
13.33 266.13855
13.34 266.681549
13.35 273.772736
13.36 279.258575
13.37 276.200745
13.38 270.358002
13.39 270.998077
13.40 274.815948
13.41 270.394501
13.42 267.02655
13.43 269.803955
13.44 271.847748
13.45 272.151459
13.46 274.428223
13.47 282.205261
13.48 281.072083
13.49 277.804138
13.50 273.543579
13.51 265.922058
13.52 259.45047
13.53 256.600067
13.54 267.791962
13.55 275.148193
13.56 271.031158
13.57 268.995758
13.58 272.500153
13.59 265.427002
13.60 264.976929
13.61 268.02478
13.62 270.121765
13.63 275.067596
13.64 279.146637
13.65 282.190002
13.66 280.58493
13.67 281.140778
13.68 287.972229
13.69 297.698212
13.70 297.578583
13.71 289.699188
13.72 278.565765
13.73 277.89917
13.74 276.558594
13.75 275.05426
13.76 286.462738
13.77 290.723145
13.78 287.861847
13.79 281.151947
13.80 276.223724
13.81 277.449463
13.82 283.702667
13.83 285.460632
13.84 278.837219
13.85 272.878113
13.86 274.551086
13.87 280.538605
13.88 288.637817
13.89 292.590179
13.90 293.291199
13.91 288.724091
13.92 283.150238
13.93 289.811615
13.94 288.724762
13.95 287.481293
13.96 292.211456
13.97 294.886139
13.98 290.214203
13.99 282.7901
14.00 286.723846
14.01 294.454102
14.02 294.220459
14.03 290.949951
14.04 290.814117
14.05 291.152985
14.06 291.610443
14.07 296.184906
14.08 297.658844
14.09 291.356812
14.10 285.197296
14.11 294.199127
14.12 297.336456
14.13 286.91037
14.14 285.998779
14.15 283.924011
14.16 288.704559
14.17 294.830048
14.18 294.024261
14.19 293.530151
14.20 296.841522
14.21 293.240631
14.22 291.459534
14.23 295.200409
14.24 290.919128
14.25 284.916016
14.26 291.471619
14.27 301.329132
14.28 301.731049
14.29 300.565491
14.30 288.346375
14.31 290.648651
14.32 295.111267
14.33 293.434357
14.34 293.966217
14.35 298.349304
14.36 301.829712
14.37 295.729126
14.38 304.493408
14.39 313.670593
14.40 314.840057
14.41 311.972626
14.42 309.332977
14.43 307.549835
14.44 304.49408
14.45 300.608643
14.46 294.210663
14.47 301.988312
14.48 310.625061
14.49 312.439423
14.50 312.585693
14.51 309.003784
14.52 305.376129
14.53 305.631317
14.54 311.96579
14.55 325.579559
14.56 328.187683
14.57 320.395569
14.58 314.649689
14.59 312.573608
14.60 320.242554
14.61 319.690063
14.62 322.053528
14.63 327.02179
14.64 326.978424
14.65 323.626587
14.66 324.286438
14.67 330.22702
14.68 334.88916
14.69 344.011658
14.70 355.723267
14.71 364.945801
14.72 367.786255
14.73 358.950531
14.74 360.737762
14.75 370.778595
14.76 367.585236
14.77 362.801025
14.78 368.28476
14.79 374.224884
14.80 381.857056
14.81 391.38443
14.82 401.364594
14.83 400.544312
14.84 398.648987
14.85 409.583832
14.86 411.896851
14.87 419.316254
14.88 430.73465
14.89 428.847961
14.90 424.232391
14.91 426.811066
14.92 435.710846
14.93 443.505157
14.94 442.103851
14.95 449.836914
14.96 465.965637
14.97 480.382996
14.98 491.94043
14.99 493.057373
15.00 498.338165
15.01 504.64502
15.02 519.03186
15.03 537.645996
15.04 548.132019
15.05 558.71582
15.06 570.818542
15.07 571.263306
15.08 572.728088
15.09 588.098206
15.10 597.446655
15.11 609.774902
15.12 617.921082
15.13 621.109253
15.14 620.514404
15.15 616.906189
15.16 626.855286
15.17 643.354065
15.18 649.359192
15.19 647.248596
15.20 634.039612
15.21 633.424927
15.22 644.253052
15.23 639.536682
15.24 632.11731
15.25 630.399597
15.26 614.206482
15.27 600.751282
15.28 589.912048
15.29 582.741882
15.30 572.440857
15.31 561.85498
15.32 546.512207
15.33 532.236633
15.34 517.20105
15.35 510.981567
15.36 501.380676
15.37 482.536652
15.38 458.404907
15.39 452.617188
15.40 442.778992
15.41 439.515045
15.42 426.885681
15.43 407.338623
15.44 403.658539
15.45 394.635223
15.46 393.624084
15.47 395.661835
15.48 396.353668
15.49 397.504669
15.50 392.823944
15.51 370.613983
15.52 360.367981
15.53 360.453278
15.54 356.6651
15.55 360.716949
15.56 358.583344
15.57 351.467529
15.58 340.911469
15.59 334.153961
15.60 342.458069
15.61 351.21582
15.62 351.671661
15.63 346.417938
15.64 346.497467
15.65 344.684204
15.66 336.596344
15.67 328.328583
15.68 321.624329
15.69 320.511566
15.70 330.304047
15.71 337.803345
15.72 335.600891
15.73 335.232483
15.74 336.861023
15.75 332.942169
15.76 329.044373
15.77 334.580353
15.78 335.503235
15.79 336.348785
15.80 337.821472
15.81 342.113953
15.82 341.810852
15.83 334.210236
15.84 331.714844
15.85 328.673615
15.86 329.316742
15.87 333.969971
15.88 328.261505
15.89 327.236267
15.90 335.280853
15.91 337.565765
15.92 331.151031
15.93 324.328766
15.94 320.331543
15.95 323.239899
15.96 325.364258
15.97 334.699646
15.98 339.918915
15.99 327.302063
16.00 323.368256
16.01 324.904266
16.02 322.701416
16.03 322.579712
16.04 329.479767
16.05 325.636444
16.06 323.599518
16.07 325.70636
16.08 327.219391
16.09 331.603516
16.10 330.955139
16.11 333.060944
16.12 334.86377
16.13 340.02475
16.14 340.638763
16.15 331.201263
16.16 327.373108
16.17 331.733124
16.18 333.778595
16.19 333.588074
16.20 337.885895
16.21 340.547363
16.22 337.697174
16.23 330.188446
16.24 340.844025
16.25 342.727203
16.26 331.557037
16.27 320.904022
16.28 316.376343
16.29 321.125275
16.30 333.191711
16.31 340.877563
16.32 345.143585
16.33 343.709778
16.34 335.736328
16.35 337.973816
16.36 333.622467
16.37 325.063477
16.38 326.410889
16.39 333.767181
16.40 335.227264
16.41 331.236053
16.42 327.747589
16.43 330.305328
16.44 336.667908
16.45 339.920288
16.46 340.715088
16.47 343.983887
16.48 341.613892
16.49 336.806702
16.50 338.003448
16.51 340.365204
16.52 335.665222
16.53 330.089233
16.54 334.560425
16.55 335.704956
16.56 340.723511
16.57 347.666779
16.58 350.122528
16.59 347.782227
16.60 345.514465
16.61 340.732391
16.62 330.627197
16.63 327.608582
16.64 330.228363
16.65 337.094818
16.66 340.599487
16.67 339.150726
16.68 338.939911
16.69 336.053589
16.70 337.353882
16.71 342.683014
16.72 352.668274
16.73 352.791351
16.74 352.556183
16.75 350.137512
16.76 342.523804
16.77 338.110992
16.78 334.908417
16.79 336.046448
16.80 335.846832
16.81 334.756744
16.82 336.781525
16.83 336.064545
16.84 341.155609
16.85 351.228943
16.86 352.751495
16.87 350.987823
16.88 352.982971
16.89 350.498474
16.90 343.835327
16.91 343.483948
16.92 344.654388
16.93 348.914215
16.94 348.560333
16.95 350.348267
16.96 352.716583
16.97 356.896759
16.98 360.983582
16.99 364.515869
17.00 362.711578
17.01 360.512817
17.02 359.309448
17.03 358.776154
17.04 357.680939
17.05 353.837067
17.06 350.857758
17.07 350.367737
17.08 356.220184
17.09 360.474731
17.10 356.820801
17.11 349.646851
17.12 351.927368
17.13 364.113159
17.14 369.469177
17.15 362.522064
17.16 359.615234
17.17 358.751465
17.18 359.436401
17.19 357.837708
17.20 359.759918
17.21 364.967224
17.22 356.013702
17.23 357.80719
17.24 363.561646
17.25 370.819427
17.26 376.783997
17.27 376.695374
17.28 373.081848
17.29 364.292664
17.30 361.437439
17.31 366.565674
17.32 366.703613
17.33 366.00885
17.34 365.930939
17.35 361.47229
17.36 359.224701
17.37 365.376312
17.38 365.479553
17.39 359.527283
17.40 353.498566
17.41 349.929688
17.42 358.101318
17.43 365.960999
17.44 368.929382
17.45 372.432465
17.46 370.840118
17.47 376.357361
17.48 377.745728
17.49 368.79129
17.50 368.699005
17.51 369.257538
17.52 367.977203
17.53 370.816315
17.54 374.02356
17.55 377.920166
17.56 374.783905
17.57 360.526947
17.58 354.414551
17.59 357.372284
17.60 361.255035
17.61 367.403442
17.62 374.782776
17.63 382.528229
17.64 378.954193
17.65 372.158081
17.66 371.108368
17.67 368.859009
17.68 367.012146
17.69 372.118469
17.70 375.46814
17.71 379.924774
17.72 375.408051
17.73 361.805328
17.74 356.403656
17.75 362.323029
17.76 364.926208
17.77 373.35965
17.78 381.498138
17.79 383.061462
17.80 377.600525
17.81 370.382782
17.82 374.098602
17.83 375.136566
17.84 373.886292
17.85 375.516693
17.86 375.108002
17.87 371.99646
17.88 373.184204
17.89 376.882324
17.90 374.844238
17.91 378.131744
17.92 382.846649
17.93 379.14267
17.94 380.066071
17.95 385.60141
17.96 387.303925
17.97 386.556427
17.98 387.227539
17.99 388.698547
18.00 386.82843
18.01 385.899994
18.02 383.282806
18.03 379.014557
18.04 382.707733
18.05 392.588501
18.06 396.462769
18.07 400.631165
18.08 399.402405
18.09 395.659088
18.10 396.519684
18.11 398.737152
18.12 396.570953
18.13 394.250244
18.14 394.080322
18.15 389.110443
18.16 384.738739
18.17 380.61731
18.18 383.541229
18.19 382.822083
18.20 381.109772
18.21 393.268555
18.22 395.240356
18.23 387.431213
18.24 378.142761
18.25 377.908356
18.26 387.057861
18.27 395.828583
18.28 404.97403
18.29 407.047241
18.30 399.221069
18.31 395.179291
18.32 386.843323
18.33 387.707001
18.34 392.709564
18.35 387.581024
18.36 395.107452
18.37 402.472534
18.38 404.163696
18.39 406.466827
18.40 404.05368
18.41 406.306122
18.42 407.229034
18.43 405.894867
18.44 397.453705
18.45 391.859283
18.46 393.592651
18.47 402.237366
18.48 416.48938
18.49 419.475952
18.50 412.651886
18.51 409.490112
18.52 404.483063
18.53 398.373932
18.54 405.337341
18.55 410.516479
18.56 418.91983
18.57 426.082001
18.58 426.421936
18.59 422.169281
18.60 417.279327
18.61 410.934174
18.62 410.002716
18.63 410.961578
18.64 414.099518
18.65 410.658295
18.66 407.161926
18.67 408.975677
18.68 403.54248
18.69 402.001892
18.70 406.206512
18.71 411.810547
18.72 421.128632
18.73 421.867767
18.74 423.878326
18.75 422.405609
18.76 416.445465
18.77 412.004425
18.78 413.164093
18.79 419.170441
18.80 424.24295
18.81 423.4841
18.82 420.916565
18.83 418.804993
18.84 417.077087
18.85 415.504974
18.86 420.995544
18.87 428.394867
18.88 431.468842
18.89 431.469635
18.90 430.973022
18.91 423.748108
18.92 418.485626
18.93 416.855194
18.94 424.474579
18.95 432.362488
18.96 431.006256
18.97 420.087555
18.98 417.965088
18.99 422.42691
19.00 422.800201
19.01 427.868011
19.02 424.957886
19.03 422.856384
19.04 428.541321
19.05 430.136078
19.06 431.716705
19.07 438.77829
19.08 437.995331
19.09 433.032532
19.10 430.445129
19.11 426.66864
19.12 426.036621
19.13 428.75943
19.14 435.750824
19.15 437.445496
19.16 437.284424
19.17 440.603546
19.18 440.551422
19.19 437.412598
19.20 437.981384
19.21 441.205505
19.22 449.463501
19.23 449.385437
19.24 448.163147
19.25 443.009552
19.26 430.043671
19.27 432.419464
19.28 439.65918
19.29 441.532867
19.30 440.384491
19.31 440.992279
19.32 443.253387
19.33 444.690552
19.34 441.372437
19.35 444.104187
19.36 448.426788
19.37 444.872162
19.38 441.127045
19.39 437.738892
19.40 441.676605
19.41 450.335846
19.42 446.562195
19.43 443.5271
19.44 440.837555
19.45 439.829285
19.46 441.257263
19.47 448.146423
19.48 451.166626
19.49 445.598389
19.50 445.192505
19.51 441.163544
19.52 436.419373
19.53 438.667023
19.54 444.111755
19.55 455.44577
19.56 458.770905
19.57 458.312988
19.58 462.141235
19.59 461.275482
19.60 462.287842
19.61 455.402435
19.62 444.783264
19.63 446.368011
19.64 452.177307
19.65 456.653412
19.66 462.020203
19.67 466.230011
19.68 463.529816
19.69 461.80304
19.70 460.637817
19.71 461.941986
19.72 464.571106
19.73 465.525909
19.74 464.57724
19.75 462.056335
19.76 459.911682
19.77 461.473846
19.78 460.671265
19.79 461.578827
19.80 466.133423
19.81 459.955505
19.82 454.059418
19.83 455.528107
19.84 461.697205
19.85 467.849304
19.86 478.623962
19.87 483.578735
19.88 476.952118
19.89 472.134033
19.90 476.580963
19.91 476.529816
19.92 476.361298
19.93 479.170166
19.94 476.879974
19.95 474.424805
19.96 471.648224
19.97 466.169098
19.98 464.380157
19.99 467.757141
20.00 476.197693
20.01 476.7099
20.02 476.344849
20.03 481.216522
20.04 480.644714
20.05 471.911285
20.06 473.755157
20.07 478.271637
20.08 476.98999
20.09 476.709229
20.10 472.371765
20.11 473.277435
20.12 477.91983
20.13 476.998749
20.14 472.774536
20.15 473.440094
20.16 476.662109
20.17 479.389099
20.18 480.629517
20.19 482.89447
20.20 486.619415
20.21 491.619965
20.22 494.075256
20.23 490.334503
20.24 481.651947
20.25 479.58017
20.26 489.424164
20.27 495.69342
20.28 496.01413
20.29 491.80246
20.30 493.186127
20.31 492.735565
20.32 489.026764
20.33 493.844482
20.34 498.363708
20.35 500.344269
20.36 506.161713
20.37 504.194489
20.38 494.781586
20.39 492.861725
20.40 496.370087
20.41 503.873718
20.42 497.0065
20.43 486.440002
20.44 476.1297
20.45 476.300995
20.46 487.787903
20.47 499.057465
20.48 508.828888
20.49 511.118805
20.50 504.282471
20.51 494.479004
20.52 496.754089
20.53 502.906006
20.54 515.439636
20.55 519.528564
20.56 506.267578
20.57 494.312988
20.58 487.519928
20.59 486.868011
20.60 489.216827
20.61 486.710846
20.62 491.025635
20.63 496.144623
20.64 501.877472
20.65 509.603546
20.66 516.464111
20.67 518.03949
20.68 512.828064
20.69 510.767578
20.70 510.742523
20.71 509.504578
20.72 507.507935
20.73 508.664246
20.74 513.76947
20.75 520.293762
20.76 523.947754
20.77 530.738403
20.78 527.650635
20.79 516.026611
20.80 516.633606
20.81 520.831482
20.82 519.922058
20.83 520.396301
20.84 518.451233
20.85 511.454559
20.86 509.95575
20.87 520.404907
20.88 517.185852
20.89 511.686676
20.90 522.060059
20.91 526.895874
20.92 521.584351
20.93 520.216736
20.94 522.72113
20.95 519.640747
20.96 519.496338
20.97 530.051147
20.98 531.378174
20.99 528.181152
21.00 529.334412
21.01 528.979797
21.02 529.871582
21.03 522.503357
21.04 519.187927
21.05 535.048279
21.06 540.983643
21.07 533.685669
21.08 535.700195
21.09 550.153992
21.10 547.575623
21.11 531.269897
21.12 529.468628
21.13 526.007019
21.14 528.425903
21.15 537.512939
21.16 544.935974
21.17 552.309814
21.18 552.672485
21.19 547.935669
21.20 547.081909
21.21 547.690979
21.22 553.78656
21.23 557.867981
21.24 559.349365
21.25 560.671387
21.26 559.059387
21.27 559.469177
21.28 563.390808
21.29 562.881958
21.30 563.625793
21.31 566.845093
21.32 574.53009
21.33 574.873962
21.34 574.855591
21.35 584.536499
21.36 591.354126
21.37 598.226685
21.38 604.241821
21.39 598.944092
21.40 594.57251
21.41 591.186523
21.42 584.471191
21.43 587.957397
21.44 594.599854
21.45 597.758301
21.46 598.578979
21.47 595.293518
21.48 592.104736
21.49 600.871216
21.50 604.580566
21.51 600.109985
21.52 601.061218
21.53 609.730042
21.54 616.094421
21.55 609.312561
21.56 598.102783
21.57 604.008423
21.58 609.675171
21.59 602.277832
21.60 604.580872
21.61 610.045776
21.62 605.124512
21.63 610.632935
21.64 607.855103
21.65 610.94458
21.66 606.800903
21.67 596.127747
21.68 600.700806
21.69 599.95697
21.70 600.511475
21.71 595.043091
21.72 586.502075
21.73 590.062866
21.74 588.304138
21.75 579.972168
21.76 583.372253
21.77 591.585205
21.78 590.458923
21.79 588.389099
21.80 584.053162
21.81 584.178711
21.82 585.128845
21.83 578.757568
21.84 576.08606
21.85 576.929932
21.86 587.134644
21.87 591.458252
21.88 589.269531
21.89 590.272217
21.90 589.007324
21.91 584.050293
21.92 579.026855
21.93 577.690979
21.94 575.630554
21.95 574.059082
21.96 565.563721
21.97 568.486389
21.98 579.992493
21.99 584.084656
22.00 585.189209
22.01 579.657288
22.02 579.452148
22.03 579.261108
22.04 581.737427
22.05 583.917542
22.06 582.661316
22.07 584.595337
22.08 581.313965
22.09 577.57135
22.10 578.609863
22.11 578.262146
22.12 579.043579
22.13 582.967896
22.14 577.798401
22.15 575.826355
22.16 580.924011
22.17 579.927612
22.18 573.389343
22.19 568.605347
22.20 570.831909
22.21 575.856384
22.22 581.501892
22.23 585.426758
22.24 590.562622
22.25 601.773926
22.26 606.049011
22.27 601.190491
22.28 593.865112
22.29 583.855591
22.30 579.729004
22.31 588.663696
22.32 588.417786
22.33 588.280884
22.34 593.347473
22.35 595.756775
22.36 590.107971
22.37 585.459778
22.38 586.180908
22.39 585.315674
22.40 586.346436
22.41 598.005798
22.42 601.738464
22.43 596.358826
22.44 601.860535
22.45 599.606201
22.46 589.781494
22.47 596.91449
22.48 604.943481
22.49 609.407471
22.50 603.93335
22.51 597.531494
22.52 598.733398
22.53 603.594116
22.54 599.41156
22.55 605.067566
22.56 599.054871
22.57 598.982666
22.58 610.353638
22.59 617.206055
22.60 620.629761
22.61 610.525574
22.62 598.676331
22.63 605.71759
22.64 614.933472
22.65 616.658264
22.66 615.184082
22.67 611.401794
22.68 606.341736
22.69 605.956482
22.70 607.662598
22.71 604.05365
22.72 608.649719
22.73 614.243164
22.74 603.667725
22.75 596.432007
22.76 595.908264
22.77 603.223938
22.78 610.714905
22.79 607.779541
22.80 600.547974
22.81 605.580261
22.82 615.108276
22.83 623.603943
22.84 624.655273
22.85 622.114807
22.86 620.900208
22.87 613.329956
22.88 610.42511
22.89 614.913452
22.90 616.214111
22.91 614.205383
22.92 608.95166
22.93 603.432617
22.94 615.287048
22.95 622.96283
22.96 624.532715
22.97 628.372375
22.98 630.774414
22.99 629.286133
23.00 623.271057
23.01 622.216797
23.02 618.066895
23.03 617.585022
23.04 617.565918
23.05 616.861023
23.06 619.151001
23.07 622.635864
23.08 624.245117
23.09 620.902466
23.10 618.186646
23.11 616.252197
23.12 615.737793
23.13 620.193298
23.14 622.343201
23.15 618.030762
23.16 615.532104
23.17 614.719299
23.18 613.262756
23.19 609.617065
23.20 613.614868
23.21 615.671692
23.22 605.217041
23.23 610.793945
23.24 621.167969
23.25 621.550598
23.26 616.49176
23.27 624.199768
23.28 631.787476
23.29 637.833069
23.30 628.721069
23.31 625.158081
23.32 634.247192
23.33 635.04541
23.34 636.906799
23.35 635.191528
23.36 631.7677
23.37 631.044189
23.38 630.072449
23.39 629.573242
23.40 625.612183
23.41 618.415405
23.42 610.359131
23.43 619.543213
23.44 632.451172
23.45 627.870728
23.46 612.599243
23.47 612.002258
23.48 621.076111
23.49 619.973389
23.50 624.813171
23.51 627.330139
23.52 622.143127
23.53 619.898193
23.54 614.413574
23.55 612.545532
23.56 620.503967
23.57 624.149109
23.58 624.704895
23.59 624.964172
23.60 624.935059
23.61 627.750244
23.62 625.126648
23.63 620.45105
23.64 624.545471
23.65 624.135193
23.66 616.487549
23.67 615.292664
23.68 613.476868
23.69 615.327942
23.70 617.545715
23.71 621.248962
23.72 633.148438
23.73 634.793884
23.74 634.691711
23.75 636.383301
23.76 633.89624
23.77 636.133789
23.78 633.004883
23.79 625.372803
23.80 632.540222
23.81 636.244568
23.82 628.280396
23.83 625.813538
23.84 635.582642
23.85 636.958008
23.86 642.378784
23.87 639.085144
23.88 637.444641
23.89 644.109741
23.90 644.081055
23.91 634.665283
23.92 634.116882
23.93 644.247559
23.94 641.272156
23.95 628.498169
23.96 619.213745
23.97 618.553406
23.98 619.533936
23.99 620.769958
24.00 626.173706
24.01 626.992554
24.02 624.93512
24.03 627.774292
24.04 623.868408
24.05 625.702148
24.06 631.772461
24.07 632.802246
24.08 634.069458
24.09 642.057007
24.10 653.622253
24.11 654.842773
24.12 642.001709
24.13 635.138062
24.14 634.652466
24.15 622.651978
24.16 623.020874
24.17 626.461487
24.18 630.462708
24.19 635.581787
24.20 637.945007
24.21 636.427673
24.22 630.202209
24.23 626.542908
24.24 626.733154
24.25 631.039795
24.26 633.943481
24.27 627.126831
24.28 624.874329
24.29 626.90094
24.30 629.241272
24.31 640.718323
24.32 651.765381
24.33 647.332764
24.34 632.772095
24.35 624.595215
24.36 627.885254
24.37 635.891113
24.38 643.12207
24.39 641.650757
24.40 638.844971
24.41 640.677246
24.42 643.235779
24.43 637.104736
24.44 623.788269
24.45 616.527344
24.46 620.792725
24.47 623.561218
24.48 627.447266
24.49 633.456909
24.50 633.846313
24.51 629.828552
24.52 628.114746
24.53 630.070251
24.54 630.422424
24.55 630.977234
24.56 637.479004
24.57 642.736389
24.58 637.379395
24.59 631.704773
24.60 629.364685
24.61 635.488098
24.62 636.758057
24.63 633.700134
24.64 635.331726
24.65 641.83429
24.66 644.83551
24.67 638.955811
24.68 631.392273
24.69 633.547119
24.70 634.815918
24.71 636.648499
24.72 648.467224
24.73 652.525574
24.74 651.647705
24.75 646.51416
24.76 634.683716
24.77 633.192932
24.78 635.819824
24.79 624.916565
24.80 619.684814
24.81 628.982849
24.82 638.085815
24.83 642.224915
24.84 642.668091
24.85 645.537659
24.86 640.838074
24.87 633.896729
24.88 627.273132
24.89 625.668457
24.90 633.727844
24.91 634.614624
24.92 636.529907
24.93 643.52356
24.94 648.65802
24.95 651.200073
24.96 648.458313
24.97 646.617676
24.98 647.047791
24.99 640.018127
25.00 634.7323
25.01 638.827942
25.02 643.217468
25.03 644.019592
25.04 646.008606
25.05 655.590271
25.06 656.128113
25.07 645.77533
25.08 642.000061
25.09 645.156067
25.10 650.916687
25.11 648.297974
25.12 643.01001
25.13 639.09967
25.14 636.079407
25.15 627.59375
25.16 631.035767
25.17 632.676147
25.18 632.666992
25.19 634.898499
25.20 643.358582
25.21 654.837891
25.22 656.911377
25.23 651.769592
25.24 644.951843
25.25 641.489014
25.26 642.657898
25.27 644.312378
25.28 646.137207
25.29 652.643799
25.30 653.67572
25.31 648.013489
25.32 648.791077
25.33 647.960022
25.34 645.112488
25.35 646.601013
25.36 639.583984
25.37 630.032654
25.38 635.518066
25.39 645.15918
25.40 642.240295
25.41 643.592529
25.42 641.2724
25.43 635.391418
25.44 637.375427
25.45 641.697998
25.46 640.395081
25.47 634.29126
25.48 633.90802
25.49 638.239441
25.50 638.43512
25.51 639.569824
25.52 640.946228
25.53 648.165039
25.54 646.953979
25.55 646.60791
25.56 647.457642
25.57 648.702759
25.58 653.212158
25.59 655.342773
25.60 655.810852
25.61 655.2453
25.62 652.206665
25.63 641.677002
25.64 635.190674
25.65 640.355774
25.66 639.776733
25.67 641.896729
25.68 639.243286
25.69 635.343506
25.70 642.196472
25.71 649.775085
25.72 649.469116
25.73 648.44519
25.74 641.588379
25.75 642.282349
25.76 641.492737
25.77 643.157288
25.78 637.244141
25.79 626.980164
25.80 633.767883
25.81 644.432312
25.82 641.225891
25.83 640.464661
25.84 642.414185
25.85 637.653137
25.86 639.327148
25.87 648.663269
25.88 652.937927
25.89 652.122192
25.90 646.650574
25.91 641.801331
25.92 647.366821
25.93 659.038452
25.94 660.770874
25.95 657.960938
25.96 649.084412
25.97 638.70929
25.98 631.891541
25.99 631.842407
26.00 639.004761
26.01 641.867249
26.02 642.244019
26.03 644.585632
26.04 640.790466
26.05 634.311646
26.06 635.810547
26.07 636.285583
26.08 632.116272
26.09 628.5177
26.10 631.975464
26.11 637.176086
26.12 641.754883
26.13 645.353577
26.14 657.345093
26.15 659.274048
26.16 650.127686
26.17 641.152954
26.18 636.633362
26.19 635.530396
26.20 635.010193
26.21 636.388794
26.22 636.729431
26.23 640.389709
26.24 644.181335
26.25 643.067932
26.26 644.184692
26.27 639.973083
26.28 638.278931
26.29 641.914368
26.30 644.633179
26.31 643.083069
26.32 641.982239
26.33 637.518677
26.34 640.336304
26.35 636.79364
26.36 640.404358
26.37 649.281311
26.38 650.301697
26.39 650.675232
26.40 644.229797
26.41 635.453125
26.42 627.847473
26.43 630.615784
26.44 636.479248
26.45 635.237549
26.46 629.69397
26.47 629.932617
26.48 630.87561
26.49 628.955688
26.50 627.060913
26.51 631.761169
26.52 635.778442
26.53 640.57312
26.54 639.327271
26.55 633.913879
26.56 638.761658
26.57 646.513062
26.58 649.346802
26.59 643.886719
26.60 640.201599
26.61 638.73938
26.62 638.501709
26.63 639.781677
26.64 637.650574
26.65 634.957397
26.66 634.981812
26.67 622.660767
26.68 611.820068
26.69 617.290894
26.70 622.760193
26.71 620.356506
26.72 627.318359
26.73 634.40741
26.74 634.587341
26.75 636.993408
26.76 632.731995
26.77 629.206238
26.78 626.882324
26.79 623.960571
26.80 623.994995
26.81 619.355591
26.82 623.814758
26.83 625.853638
26.84 622.020508
26.85 619.375977
26.86 620.346375
26.87 629.209839
26.88 632.323059
26.89 629.967834
26.90 634.012817
26.91 639.162598
26.92 634.361145
26.93 631.875793
26.94 630.553345
26.95 628.896179
26.96 631.184204
26.97 640.851379
26.98 639.361084
26.99 623.265747
27.00 613.837341
27.01 611.883972
27.02 615.075317
27.03 622.533142
27.04 625.537048
27.05 628.707642
27.06 627.579712
27.07 621.824829
27.08 626.265503
27.09 631.177856
27.10 628.946594
27.11 632.02124
27.12 642.198059
27.13 642.447998
27.14 629.446106
27.15 626.172791
27.16 628.081421
27.17 624.679382
27.18 620.910461
27.19 620.656006
27.20 623.008301
27.21 626.559753
27.22 624.985291
27.23 620.590698
27.24 625.075073
27.25 630.817627
27.26 626.672119
27.27 622.114624
27.28 627.86731
27.29 621.033386
27.30 612.694824
27.31 623.210327
27.32 630.943359
27.33 626.516052
27.34 628.004395
27.35 630.934753
27.36 634.773865
27.37 636.771973
27.38 635.034607
27.39 632.393616
27.40 629.571594
27.41 626.41626
27.42 625.405273
27.43 625.629517
27.44 625.023438
27.45 624.930237
27.46 624.452881
27.47 621.871948
27.48 623.345398
27.49 623.516357
27.50 623.171021
27.51 616.331726
27.52 609.530334
27.53 611.608765
27.54 623.163757
27.55 626.813232
27.56 618.52301
27.57 618.496155
27.58 623.352844
27.59 624.492737
27.60 623.020508
27.61 624.755493
27.62 629.378052
27.63 622.870239
27.64 624.037292
27.65 626.790344
27.66 628.371948
27.67 628.645142
27.68 628.385132
27.69 627.992554
27.70 632.49469
27.71 629.056274
27.72 630.372864
27.73 628.54541
27.74 618.888733
27.75 612.821838
27.76 617.009949
27.77 625.1203
27.78 622.572266
27.79 619.704529
27.80 616.390808
27.81 619.246704
27.82 623.943298
27.83 627.53479
27.84 629.91925
27.85 630.925415
27.86 630.004517
27.87 630.296326
27.88 626.905212
27.89 622.972412
27.90 617.274902
27.91 609.509827
27.92 612.589172
27.93 618.138306
27.94 620.684814
27.95 626.419373
27.96 629.226929
27.97 628.145813
27.98 622.202942
27.99 614.944092
28.00 615.851685
28.01 618.654968
28.02 618.667419
28.03 622.829102
28.04 622.526245
28.05 617.318054
28.06 613.208801
28.07 613.471252
28.08 610.33313
28.09 601.770813
28.10 598.279053
28.11 601.651917
28.12 606.674805
28.13 613.684387
28.14 622.977661
28.15 628.144714
28.16 626.972534
28.17 622.47345
28.18 618.146545
28.19 611.356934
28.20 605.503235
28.21 607.596252
28.22 615.463379
28.23 613.953247
28.24 606.283691
28.25 609.00354
28.26 616.742615
28.27 622.257874
28.28 620.941956
28.29 617.024292
28.30 618.195251
28.31 625.371643
28.32 629.163696
28.33 623.259521
28.34 620.554016
28.35 618.914734
28.36 614.404236
28.37 608.121948
28.38 601.629578
28.39 600.078369
28.40 605.578491
28.41 616.592346
28.42 618.94635
28.43 616.355652
28.44 610.48645
28.45 616.100159
28.46 623.095398
28.47 624.182861
28.48 623.051025
28.49 622.778381
28.50 623.057373
28.51 619.243103
28.52 612.220154
28.53 607.004333
28.54 609.34375
28.55 616.277954
28.56 622.295532
28.57 619.56665
28.58 611.713806
28.59 608.397522
28.60 608.434937
28.61 612.02002
28.62 611.660645
28.63 608.538086
28.64 609.194458
28.65 615.337341
28.66 613.856812
28.67 612.087708
28.68 609.362366
28.69 607.28125
28.70 610.339233
28.71 609.673401
28.72 604.28479
28.73 601.280701
28.74 602.27063
28.75 607.76416
28.76 610.874878
28.77 607.443054
28.78 606.62207
28.79 604.633179
28.80 599.159973
28.81 604.712708
28.82 608.393738
28.83 604.903992
28.84 607.810974
28.85 614.416931
28.86 613.217651
28.87 608.373962
28.88 607.961792
28.89 607.277954
28.90 606.823669
28.91 618.133118
28.92 623.058594
28.93 616.919189
28.94 614.577148
28.95 610.286316
28.96 598.723389
28.97 590.338623
28.98 598.904907
28.99 601.076538
29.00 604.373108
29.01 607.66449
29.02 607.312439
29.03 608.331116
29.04 607.294983
29.05 606.962891
29.06 606.926575
29.07 610.935364
29.08 614.108215
29.09 619.103638
29.10 615.838379
29.11 609.867004
29.12 604.992004
29.13 600.946228
29.14 606.824646
29.15 606.093323
29.16 599.489136
29.17 599.722351
29.18 598.510437
29.19 595.66748
29.20 601.070496
29.21 605.174622
29.22 607.720459
29.23 616.004395
29.24 612.742615
29.25 604.443542
29.26 600.608582
29.27 597.88324
29.28 595.303589
29.29 602.351379
29.30 601.674988
29.31 600.343445
29.32 606.806213
29.33 607.091248
29.34 605.843689
29.35 607.122986
29.36 607.704956
29.37 606.809814
29.38 601.40564
29.39 598.004089
29.40 608.150574
29.41 611.682129
29.42 606.668274
29.43 609.964355
29.44 608.692505
29.45 606.423157
29.46 610.651917
29.47 611.510925
29.48 613.746765
29.49 606.907898
29.50 603.026001
29.51 605.915283
29.52 602.879211
29.53 600.403503
29.54 599.935547
29.55 598.625732
29.56 596.183289
29.57 597.489319
29.58 595.442566
29.59 596.990723
29.60 597.436035
29.61 600.21698
29.62 599.769836
29.63 596.901062
29.64 593.833618
29.65 590.045776
29.66 591.682007
29.67 601.28717
29.68 615.781128
29.69 621.820129
29.70 619.967834
29.71 615.594055
29.72 613.115356
29.73 609.633789
29.74 609.193054
29.75 602.061707
29.76 594.900696
29.77 590.780029
29.78 592.055664
29.79 597.441895
29.80 597.315674
29.81 600.279968
29.82 598.86438
29.83 589.370972
29.84 587.021545
29.85 592.599915
29.86 599.933533
29.87 600.270569
29.88 598.865784
29.89 600.954224
29.90 603.642334
29.91 607.708374
29.92 606.639771
29.93 595.929871
29.94 588.42981
29.95 594.323486
29.96 600.210693
29.97 606.622437
29.98 614.377747
29.99 612.528076
30.00 609.499939
30.01 613.460999
30.02 610.596558
30.03 599.638672
30.04 600.960266
30.05 611.50647
30.06 616.560913
30.07 612.551025
30.08 608.161255
30.09 604.151855
30.10 596.238342
30.11 598.90863
30.12 603.263977
30.13 609.680908
30.14 609.843262
30.15 607.796326
30.16 604.879456
30.17 599.685303
30.18 601.475708
30.19 606.727295
30.20 607.751099
30.21 612.715271
30.22 617.582703
30.23 620.991638
30.24 622.02948
30.25 617.397888
30.26 621.090149
30.27 627.512573
30.28 620.443237
30.29 616.537903
30.30 618.61145
30.31 625.830872
30.32 629.09552
30.33 631.981995
30.34 637.069214
30.35 641.778198
30.36 639.049561
30.37 632.692505
30.38 634.783447
30.39 635.970154
30.40 642.583862
30.41 646.934753
30.42 644.709534
30.43 642.502258
30.44 640.626221
30.45 641.504211
30.46 652.070313
30.47 660.010681
30.48 667.785034
30.49 665.505432
30.50 665.421631
30.51 678.36084
30.52 684.75946
30.53 694.820801
30.54 703.803345
30.55 708.054688
30.56 709.719177
30.57 719.12616
30.58 715.770691
30.59 708.511414
30.60 710.365295
30.61 715.533691
30.62 717.342163
30.63 726.824463
30.64 730.849243
30.65 726.149414
30.66 718.197144
30.67 719.607056
30.68 728.55188
30.69 725.776245
30.70 721.365234
30.71 724.702515
30.72 722.624146
30.73 716.092041
30.74 710.721191
30.75 708.917297
30.76 709.113403
30.77 703.710754
30.78 699.529297
30.79 697.998352
30.80 699.322021
30.81 699.54126
30.82 693.753174
30.83 685.937744
30.84 681.198425
30.85 676.704346
30.86 671.463135
30.87 667.921387
30.88 663.94397
30.89 661.270142
30.90 646.04834
30.91 640.163086
30.92 643.475159
30.93 649.914307
30.94 644.684204
30.95 639.772278
30.96 638.912537
30.97 628.059265
30.98 621.368286
30.99 621.514526
31.00 613.720154
31.01 615.089294
31.02 618.741272
31.03 615.633057
31.04 614.059814
31.05 612.63446
31.06 609.144592
31.07 607.472229
31.08 606.604309
31.09 607.485962
31.10 612.539185
31.11 603.333557
31.12 582.795227
31.13 577.292419
31.14 588.15918
31.15 594.706909
31.16 593.306641
31.17 585.048035
31.18 579.373352
31.19 580.292175
31.20 588.381165
31.21 590.250854
31.22 588.525513
31.23 585.808594
31.24 584.2724
31.25 583.352844
31.26 586.254883
31.27 589.831177
31.28 587.158752
31.29 583.777588
31.30 585.518066
31.31 583.274414
31.32 589.192444
31.33 591.216675
31.34 587.25647
31.35 579.997925
31.36 578.824036
31.37 582.865479
31.38 590.466736
31.39 581.751526
31.40 574.835388
31.41 581.436035
31.42 583.32843
31.43 578.679321
31.44 568.571655
31.45 561.337952
31.46 564.332581
31.47 567.456421
31.48 569.345947
31.49 569.815491
31.50 568.823547
31.51 578.691528
31.52 585.225037
31.53 577.2901
31.54 571.41095
31.55 568.940857
31.56 574.702637
31.57 571.704285
31.58 561.070496
31.59 556.203674
31.60 552.352295
31.61 553.519775
31.62 562.004333
31.63 564.508118
31.64 566.819763
31.65 569.649536
31.66 566.862793
31.67 555.965942
31.68 556.232239
31.69 562.578979
31.70 556.702087
31.71 549.79541
31.72 553.805786
31.73 558.99176
31.74 560.141296
31.75 563.331604
31.76 563.376099
31.77 565.246643
31.78 565.527161
31.79 559.811462
31.80 548.593567
31.81 547.550964
31.82 548.066223
31.83 544.039307
31.84 543.69043
31.85 544.26825
31.86 542.252258
31.87 542.460693
31.88 542.721375
31.89 547.360229
31.90 550.510254
31.91 550.196228
31.92 546.668152
31.93 547.379761
31.94 546.037598
31.95 542.128479
31.96 548.76355
31.97 558.41394
31.98 552.299133
31.99 546.729431
32.00 549.474609
32.01 555.615173
32.02 556.606018
32.03 553.678833
32.04 552.070618
32.05 551.889648
32.06 553.950012
32.07 552.089844
32.08 548.736877
32.09 551.766907
32.10 553.694397
32.11 554.371155
32.12 546.536133
32.13 540.596497
32.14 538.040833
32.15 536.28302
32.16 536.929504
32.17 538.142639
32.18 540.957336
32.19 543.539795
32.20 547.295166
32.21 546.969666
32.22 547.149353
32.23 550.647705
32.24 546.752197
32.25 537.134094
32.26 541.012451
32.27 550.426575
32.28 550.03595
32.29 545.566406
32.30 540.105164
32.31 538.670776
32.32 538.121277
32.33 535.389709
32.34 537.433594
32.35 542.098083
32.36 537.541687
32.37 531.445129
32.38 528.289307
32.39 532.492371
32.40 534.197266
32.41 531.095032
32.42 527.313599
32.43 530.143616
32.44 535.116211
32.45 536.366394
32.46 533.858154
32.47 531.30542
32.48 529.193176
32.49 531.45813
32.50 535.530029
32.51 535.289001
32.52 535.943542
32.53 534.360229
32.54 534.976135
32.55 537.993408
32.56 541.675842
32.57 534.260986
32.58 527.698242
32.59 524.58606
32.60 524.697327
32.61 531.69873
32.62 534.860718
32.63 534.569031
32.64 535.566162
32.65 534.097656
32.66 531.974731
32.67 535.987549
32.68 544.978333
32.69 548.895508
32.70 538.93335
32.71 529.612244
32.72 530.161499
32.73 533.330566
32.74 537.090149
32.75 540.93158
32.76 538.10614
32.77 534.305908
32.78 532.901978
32.79 532.62439
32.80 533.211548
32.81 535.245605
32.82 530.089111
32.83 530.472229
32.84 527.465637
32.85 523.992004
32.86 532.654663
32.87 537.706543
32.88 533.282654
32.89 529.828308
32.90 526.362061
32.91 523.141663
32.92 528.298035
32.93 527.144287
32.94 525.420044
32.95 520.945313
32.96 516.492493
32.97 519.758545
32.98 519.55896
32.99 516.204651
33.00 522.440247
33.01 523.071106
33.02 517.420776
33.03 522.700562
33.04 524.721313
33.05 525.793823
33.06 522.368103
33.07 513.069458
33.08 512.495911
33.09 511.792267
33.10 511.733826
33.11 517.492737
33.12 516.651245
33.13 514.135315
33.14 517.547119
33.15 514.404236
33.16 505.836365
33.17 507.065704
33.18 508.696655
33.19 507.942078
33.20 506.132996
33.21 507.029297
33.22 514.720093
33.23 519.751282
33.24 523.348206
33.25 528.844971
33.26 526.048218
33.27 518.998413
33.28 513.71521
33.29 515.125549
33.30 519.050598
33.31 511.301483
33.32 506.81546
33.33 515.135315
33.34 511.070129
33.35 506.118591
33.36 507.490479
33.37 508.74762
33.38 509.587494
33.39 510.362915
33.40 511.272797
33.41 510.014618
33.42 503.839417
33.43 503.588562
33.44 509.953522
33.45 517.334534
33.46 519.067505
33.47 514.740051
33.48 511.006897
33.49 512.894836
33.50 513.475769
33.51 509.137756
33.52 506.801971
33.53 509.611572
33.54 504.660858
33.55 500.079681
33.56 503.763702
33.57 510.194183
33.58 511.014099
33.59 504.938507
33.60 501.131012
33.61 507.222137
33.62 511.442993
33.63 509.616241
33.64 512.4646
33.65 514.851624
33.66 503.382813
33.67 497.507446
33.68 496.456177
33.69 499.884796
33.70 505.817963
33.71 504.622009
33.72 508.552948
33.73 506.526306
33.74 502.677826
33.75 507.350311
33.76 506.80426
33.77 508.952515
33.78 515.606262
33.79 513.300293
33.80 504.029022
33.81 503.385498
33.82 506.291809
33.83 507.315765
33.84 508.968201
33.85 510.845917
33.86 507.761658
33.87 509.258942
33.88 511.421692
33.89 507.473755
33.90 502.54892
33.91 503.016022
33.92 504.034943
33.93 502.348114
33.94 504.115753
33.95 508.01355
33.96 505.347504
33.97 501.931793
33.98 504.872894
33.99 508.731628
34.00 511.912445
34.01 512.937073
34.02 511.616852
34.03 511.727386
34.04 511.401581
34.05 508.779327
34.06 511.864136
34.07 508.992889
34.08 508.494781
34.09 512.236633
34.10 513.310547
34.11 514.701477
34.12 519.566589
34.13 525.08905
34.14 524.868591
34.15 526.09729
34.16 527.10083
34.17 526.107239
34.18 528.292236
34.19 531.117371
34.20 526.285889
34.21 529.506592
34.22 527.936035
34.23 527.29187
34.24 530.463379
34.25 531.87262
34.26 530.398193
34.27 532.095215
34.28 534.088257
34.29 538.648499
34.30 546.145752
34.31 550.975281
34.32 549.755066
34.33 549.880798
34.34 556.007996
34.35 558.299133
34.36 550.460815
34.37 550.047302
34.38 552.069458
34.39 549.001099
34.40 548.951416
34.41 550.389771
34.42 552.610168
34.43 553.014038
34.44 549.280762
34.45 539.560913
34.46 534.406616
34.47 540.919189
34.48 539.434814
34.49 537.531433
34.50 546.65741
34.51 547.696838
34.52 538.85022
34.53 536.65332
34.54 531.163757
34.55 524.359985
34.56 526.308411
34.57 523.323425
34.58 517.691284
34.59 516.911987
34.60 517.255127
34.61 518.067627
34.62 521.296631
34.63 519.005615
34.64 516.763184
34.65 512.014282
34.66 507.514679
34.67 504.746368
34.68 501.603455
34.69 505.01297
34.70 507.985779
34.71 503.419952
34.72 498.178162
34.73 504.003357
34.74 504.667908
34.75 502.749237
34.76 499.218353
34.77 487.867035
34.78 483.955872
34.79 482.102753
34.80 477.889771
34.81 480.651428
34.82 486.733673
34.83 488.216705
34.84 485.789856
34.85 474.867157
34.86 468.319733
34.87 466.888031
34.88 466.283997
34.89 473.807281
34.90 478.018127
34.91 474.662109
34.92 471.649109
34.93 472.360382
34.94 477.274506
34.95 482.686096
34.96 477.358643
34.97 463.087097
34.98 457.754395
34.99 457.543304
35.00 461.646484
35.01 462.990417
35.02 456.941254
35.03 453.528351
35.04 457.335724
35.05 462.648895
35.06 462.129639
35.07 456.930756
35.08 455.502991
35.09 454.456604
35.10 451.145966
35.11 447.827911
35.12 456.313293
35.13 458.778534
35.14 453.028442
35.15 446.728882
35.16 444.101501
35.17 446.97757
35.18 448.473755
35.19 448.861237
35.20 450.606995
35.21 448.190369
35.22 447.574768
35.23 443.692749
35.24 444.617218
35.25 452.319397
35.26 449.391876
35.27 446.978729
35.28 448.019623
35.29 449.580597
35.30 452.190125
35.31 448.787598
35.32 441.65625
35.33 435.976807
35.34 441.961792
35.35 445.65802
35.36 445.502014
35.37 452.697754
35.38 452.657776
35.39 447.10498
35.40 444.49472
35.41 439.195221
35.42 438.729919
35.43 440.71524
35.44 440.050232
35.45 434.060852
35.46 429.404358
35.47 429.948364
35.48 432.913116
35.49 436.146088
35.50 432.638123
35.51 430.229279
35.52 432.829224
35.53 429.744904
35.54 426.401093
35.55 425.193604
35.56 426.485931
35.57 433.883545
35.58 435.172302
35.59 430.539948
35.60 429.157135
35.61 427.782867
35.62 430.795685
35.63 430.134552
35.64 424.306305
35.65 424.601379
35.66 426.788269
35.67 431.167206
35.68 426.571014
35.69 421.69574
35.70 423.430786
35.71 422.742828
35.72 416.751556
35.73 414.901611
35.74 420.819824
35.75 424.318481
35.76 420.211884
35.77 425.858765
35.78 431.385864
35.79 428.269653
35.80 429.195221
35.81 430.160461
35.82 424.874664
35.83 420.233978
35.84 415.74176
35.85 412.0495
35.86 417.024536
35.87 418.063354
35.88 416.252106
35.89 419.819397
35.90 420.104279
35.91 420.571503
35.92 421.688263
35.93 426.408356
35.94 429.017273
35.95 429.115875
35.96 426.862854
35.97 422.98468
35.98 418.955475
35.99 415.232697
36.00 409.917389
36.01 410.252594
36.02 416.194275
36.03 417.275421
36.04 419.882782
36.05 424.418732
36.06 422.803772
36.07 412.953552
36.08 410.834106
36.09 410.909302
36.10 412.739471
36.11 415.218597
36.12 415.954895
36.13 410.818726
36.14 404.687988
36.15 404.01181
36.16 404.597687
36.17 406.68689
36.18 411.972931
36.19 413.457153
36.20 412.445374
36.21 406.419098
36.22 404.459045
36.23 403.504242
36.24 399.237061
36.25 400.361481
36.26 404.698639
36.27 406.849091
36.28 404.579651
36.29 401.686707
36.30 406.219635
36.31 405.556763
36.32 402.998077
36.33 404.919556
36.34 406.919678
36.35 410.806458
36.36 412.493317
36.37 412.590912
36.38 413.388153
36.39 410.894165
36.40 406.837433
36.41 406.597626
36.42 406.417755
36.43 401.6091
36.44 400.228668
36.45 398.608673
36.46 397.682495
36.47 397.456451
36.48 393.284698
36.49 389.407867
36.50 393.014252
36.51 397.595734
36.52 401.673584
36.53 407.655243
36.54 410.171722
36.55 407.381836
36.56 399.545624
36.57 395.605469
36.58 392.455353
36.59 388.90686
36.60 390.461639
36.61 396.341125
36.62 404.4729
36.63 403.762543
36.64 399.779999
36.65 398.537567
36.66 396.042297
36.67 399.8284
36.68 406.628632
36.69 405.295288
36.70 402.249634
36.71 405.749542
36.72 408.385376
36.73 401.313416
36.74 397.981537
36.75 397.274109
36.76 389.307404
36.77 384.450989
36.78 387.809601
36.79 389.618073
36.80 389.936188
36.81 393.956787
36.82 392.706329
36.83 390.47995
36.84 391.231964
36.85 391.689209
36.86 389.103149
36.87 389.119965
36.88 387.675476
36.89 391.050201
36.90 394.641144
36.91 389.917816
36.92 387.218628
36.93 390.672485
36.94 395.61145
36.95 401.015259
36.96 395.885834
36.97 387.147644
36.98 381.840637
36.99 384.422699
37.00 390.768402
37.01 394.547577
37.02 393.156128
37.03 391.689514
37.04 391.242157
37.05 386.611847
37.06 385.35144
37.07 390.07724
37.08 392.531097
37.09 387.557922
37.10 382.765839
37.11 376.92627
37.12 374.541718
37.13 378.166168
37.14 383.372314
37.15 386.305237
37.16 381.381714
37.17 376.927246
37.18 382.033234
37.19 386.099762
37.20 385.29657
37.21 381.038879
37.22 383.828979
37.23 387.556671
37.24 391.390625
37.25 396.251312
37.26 396.45282
37.27 392.701019
37.28 386.939209
37.29 382.039185
37.30 383.902527
37.31 389.609406
37.32 391.07901
37.33 388.720001
37.34 385.467926
37.35 381.084808
37.36 382.343689
37.37 392.022552
37.38 396.160095
37.39 395.136963
37.40 396.128479
37.41 392.803802
37.42 387.107727
37.43 391.354645
37.44 390.417419
37.45 387.969879
37.46 391.891052
37.47 389.840363
37.48 388.351532
37.49 389.217163
37.50 387.889404
37.51 390.306488
37.52 391.018738
37.53 384.946747
37.54 387.177124
37.55 393.329926
37.56 396.262299
37.57 392.20108
37.58 385.543823
37.59 383.592163
37.60 384.172821
37.61 384.357483
37.62 381.713257
37.63 386.426636
37.64 384.757202
37.65 383.433075
37.66 389.293182
37.67 388.029297
37.68 380.172089
37.69 378.342285
37.70 378.384399
37.71 375.406494
37.72 379.78772
37.73 387.190399
37.74 392.782745
37.75 395.615601
37.76 397.301636
37.77 395.411072
37.78 391.477966
37.79 388.461823
37.80 389.233856
37.81 392.689209
37.82 391.867004
37.83 387.329224
37.84 381.995636
37.85 381.913452
37.86 383.915009
37.87 380.940552
37.88 380.774445
37.89 381.806793
37.90 380.818146
37.91 381.221802
37.92 383.729645
37.93 378.949677
37.94 380.623444
37.95 385.727417
37.96 384.34079
37.97 377.701996
37.98 374.624573
37.99 376.197906
38.00 378.987152
38.01 384.570892
38.02 382.941162
38.03 376.187042
38.04 377.582062
38.05 377.892029
38.06 379.225861
38.07 378.85553
38.08 378.788483
38.09 379.758362
38.10 377.301941
38.11 372.589813
38.12 369.088928
38.13 367.333405
38.14 365.531891
38.15 366.63266
38.16 369.411652
38.17 371.646515
38.18 375.550201
38.19 375.343414
38.20 370.294495
38.21 366.457947
38.22 369.179169
38.23 368.970215
38.24 364.9375
38.25 363.695892
38.26 364.812286
38.27 364.723907
38.28 366.404236
38.29 369.842743
38.30 368.572876
38.31 367.408142
38.32 372.727753
38.33 375.47702
38.34 376.756042
38.35 374.056396
38.36 368.335907
38.37 369.235748
38.38 366.862061
38.39 365.315491
38.40 367.562286
38.41 370.617065
38.42 368.592224
38.43 359.98999
38.44 355.449951
38.45 358.35318
38.46 365.138733
38.47 365.606049
38.48 361.349365
38.49 360.795044
38.50 361.978455
38.51 362.312561
38.52 363.26535
38.53 370.648438
38.54 375.104584
38.55 372.203552
38.56 371.817108
38.57 365.649841
38.58 356.730591
38.59 354.149353
38.60 353.937103
38.61 357.134247
38.62 360.138123
38.63 362.481415
38.64 362.796021
38.65 360.191376
38.66 360.929657
38.67 364.268158
38.68 365.622833
38.69 362.399048
38.70 355.78363
38.71 351.861969
38.72 351.952026
38.73 350.982544
38.74 358.38858
38.75 360.900024
38.76 358.90509
38.77 360.461304
38.78 361.272858
38.79 364.220367
38.80 364.217072
38.81 363.859009
38.82 359.489594
38.83 354.83905
38.84 361.99588
38.85 368.379425
38.86 365.944
38.87 357.785583
38.88 355.338196
38.89 357.931183
38.90 355.846771
38.91 357.957153
38.92 359.72226
38.93 355.747894
38.94 346.9375
38.95 348.950226
38.96 354.368469
38.97 353.676331
38.98 357.062134
38.99 364.435181
39.00 362.289978
39.01 356.640503
39.02 350.313629
39.03 348.114319
39.04 353.685547
39.05 356.205414
39.06 356.262604
39.07 355.797546
39.08 354.647614
39.09 356.644562
39.10 357.815277
39.11 359.712006
39.12 368.547668
39.13 366.143219
39.14 365.333405
39.15 364.668793
39.16 363.584564
39.17 366.150299
39.18 367.32193
39.19 369.078278
39.20 365.663635
39.21 361.625061
39.22 358.594299
39.23 361.51889
39.24 368.740753
39.25 368.808075
39.26 375.217957
39.27 373.336884
39.28 364.72229
39.29 365.298798
39.30 366.070801
39.31 371.521637
39.32 373.290894
39.33 370.509155
39.34 371.337891
39.35 369.297516
39.36 366.971985
39.37 373.074249
39.38 376.39859
39.39 380.85968
39.40 381.85083
39.41 372.588898
39.42 372.224274
39.43 376.441742
39.44 378.61969
39.45 379.984192
39.46 378.762299
39.47 377.713654
39.48 376.472137
39.49 377.93045
39.50 379.38681
39.51 381.674622
39.52 386.105988
39.53 391.154999
39.54 390.455719
39.55 384.724731
39.56 374.693207
39.57 370.675262
39.58 372.746094
39.59 368.191559
39.60 364.044281
39.61 368.964386
39.62 375.353027
39.63 373.583649
39.64 370.859955
39.65 371.195496
39.66 370.825439
39.67 369.390106
39.68 372.073059
39.69 369.509583
39.70 363.877899
39.71 363.49704
39.72 363.240326
39.73 364.221466
39.74 362.381653
39.75 359.91217
39.76 361.781647
39.77 360.570404
39.78 356.265686
39.79 359.590973
39.80 357.923279
39.81 356.495392
39.82 366.20108
39.83 367.121582
39.84 361.37561
39.85 360.039825
39.86 357.154388
39.87 358.247711
39.88 358.601135
39.89 353.966583
39.90 347.662506
39.91 348.135803
39.92 355.73999
39.93 360.043243
39.94 357.887299
39.95 356.408752
39.96 356.291504
39.97 348.483276
39.98 342.907013
39.99 341.988739
40.00 347.226471
40.01 350.536072
40.02 351.510071
40.03 351.845337
40.04 349.351837
40.05 344.639221
40.06 340.47699
40.07 340.635498
40.08 340.40274
40.09 346.388184
40.10 350.191406
40.11 347.426666
40.12 351.428467
40.13 349.620026
40.14 346.179626
40.15 349.763123
40.16 349.802246
40.17 346.092651
40.18 342.073242
40.19 341.363007
40.20 342.393768
40.21 341.766144
40.22 339.977356
40.23 340.336456
40.24 341.834808
40.25 342.871796
40.26 344.236298
40.27 342.253784
40.28 343.281708
40.29 341.262207
40.30 337.280182
40.31 340.452209
40.32 345.183502
40.33 345.511627
40.34 341.070892
40.35 340.26297
40.36 345.10672
40.37 347.642334
40.38 346.304535
40.39 343.310913
40.40 336.753815
40.41 341.501129
40.42 352.438324
40.43 353.189056
40.44 351.798828
40.45 352.198517
40.46 349.532074
40.47 343.06958
40.48 341.094635
40.49 340.892761
40.50 342.105804
40.51 343.043518
40.52 343.665619
40.53 342.760773
40.54 339.906433
40.55 342.187439
40.56 340.181091
40.57 338.018463
40.58 342.770203
40.59 345.696136
40.60 342.292419
40.61 339.422089
40.62 337.847809
40.63 336.601013
40.64 339.103882
40.65 341.706909
40.66 341.264984
40.67 337.635101
40.68 335.7901
40.69 341.394562
40.70 348.954071
40.71 355.380219
40.72 359.839813
40.73 353.453674
40.74 347.369598
40.75 338.848663
40.76 335.811798
40.77 340.554565
40.78 343.359711
40.79 343.357269
40.80 339.239777
40.81 337.111847
40.82 337.294403
40.83 336.585327
40.84 334.546448
40.85 333.346405
40.86 335.792053
40.87 340.300507
40.88 340.874908
40.89 339.580109
40.90 338.520233
40.91 336.186035
40.92 334.124268
40.93 338.459808
40.94 342.688904
40.95 342.82019
40.96 345.952423
40.97 346.869843
40.98 345.407471
40.99 342.376465
41.00 335.50824
41.01 335.112183
41.02 336.702148
41.03 339.057861
41.04 342.535645
41.05 340.708405
41.06 342.562622
41.07 343.335052
41.08 343.906036
41.09 344.070404
41.10 341.016724
