!@!!GADDS PLOTSO FILE: Chi integration type
!@!!Title/SampleName: ML_MAPbX3
!@!!User: NREL
!@!!Site: NREL SERF C211; SN 2510
!@!!Frame: 081022_MLProject_000_006.gfrm
!@!!Wavelengths    1.54184   1.54056   1.54439
!@!!Frame angles: 2Theta: 28.000 Omega: 5.000 Phi: 0.000 Chi: 90.000
!@!!Integration range: 2Theta: 10.000 to 41.100  Gamma: -120.400 to -60.400
!@!!Integration method: bin normalized
!@!N
!@!SS
!@!M
!@!L 0.0 0.0 0.0 0.0
!@!XDegrees
!@!YCounts
10.00 247.002975
10.01 250.377182
10.02 242.376144
10.03 227.149765
10.04 226.650848
10.05 230.212418
10.06 220.410843
10.07 218.355225
10.08 226.937958
10.09 222.718658
10.10 217.737289
10.11 217.666519
10.12 225.592331
10.13 231.956223
10.14 226.774368
10.15 225.500931
10.16 225.470093
10.17 224.45932
10.18 226.908569
10.19 229.285248
10.20 229.401016
10.21 229.552887
10.22 226.015152
10.23 228.591537
10.24 235.126678
10.25 230.018036
10.26 238.144623
10.27 249.954697
10.28 240.770538
10.29 237.496078
10.30 244.667633
10.31 245.41124
10.32 237.94902
10.33 228.175858
10.34 224.685913
10.35 231.411331
10.36 235.471039
10.37 232.666443
10.38 226.678207
10.39 220.519028
10.40 227.065414
10.41 229.626495
10.42 223.648804
10.43 224.562027
10.44 225.278122
10.45 222.594879
10.46 216.86232
10.47 224.9487
10.48 224.82692
10.49 224.851486
10.50 239.37114
10.51 238.501434
10.52 229.361084
10.53 238.972351
10.54 248.242416
10.55 247.591476
10.56 243.623474
10.57 236.039276
10.58 232.902451
10.59 233.225937
10.60 238.69989
10.61 246.550644
10.62 245.183044
10.63 242.654663
10.64 247.987915
10.65 245.002502
10.66 244.006378
10.67 243.411514
10.68 244.106003
10.69 248.966034
10.70 253.525085
10.71 249.460907
10.72 238.572968
10.73 232.592606
10.74 230.935516
10.75 233.647308
10.76 241.520752
10.77 251.196609
10.78 247.796494
10.79 237.242874
10.80 227.969208
10.81 228.515366
10.82 232.724289
10.83 232.230576
10.84 236.53508
10.85 237.306213
10.86 246.918594
10.87 252.25
10.88 248.233261
10.89 249.659698
10.90 250.565948
10.91 251.778
10.92 253.083725
10.93 247.719009
10.94 246.578918
10.95 250.770889
10.96 246.1978
10.97 246.224564
10.98 245.38591
10.99 241.124588
11.00 243.724838
11.01 250.204605
11.02 248.077057
11.03 242.163208
11.04 246.016052
11.05 249.112488
11.06 242.890549
11.07 240.262939
11.08 247.301682
11.09 251.503326
11.10 255.132065
11.11 255.28479
11.12 257.465332
11.13 249.295242
11.14 242.211639
11.15 245.26445
11.16 242.59639
11.17 237.476151
11.18 234.983902
11.19 242.221268
11.20 246.900345
11.21 249.551239
11.22 252.935944
11.23 253.394409
11.24 252.737015
11.25 250.12941
11.26 248.979874
11.27 246.789871
11.28 247.873611
11.29 252.762833
11.30 258.824554
11.31 262.899445
11.32 255.4039
11.33 249.703583
11.34 250.767105
11.35 251.804245
11.36 250.165878
11.37 253.382721
11.38 250.436096
11.39 250.31572
11.40 254.456909
11.41 252.539688
11.42 251.776199
11.43 254.122833
11.44 256.314911
11.45 258.75177
11.46 267.273834
11.47 268.658752
11.48 263.463562
11.49 261.121368
11.50 255.192963
11.51 252.780914
11.52 257.037415
11.53 252.071045
11.54 250.405502
11.55 257.348663
11.56 254.169739
11.57 246.91626
11.58 251.511383
11.59 256.407745
11.60 262.282532
11.61 260.640533
11.62 258.988953
11.63 259.982239
11.64 256.33252
11.65 259.973999
11.66 260.291962
11.67 261.185913
11.68 268.064819
11.69 270.374969
11.70 265.231537
11.71 262.540161
11.72 262.028595
11.73 254.50441
11.74 257.89389
11.75 264.699799
11.76 265.462158
11.77 260.746826
11.78 264.954407
11.79 269.161957
11.80 262.020294
11.81 261.533051
11.82 261.565948
11.83 261.045441
11.84 265.018616
11.85 261.357941
11.86 256.259521
11.87 256.324188
11.88 252.815094
11.89 250.173447
11.90 259.072998
11.91 263.667023
11.92 261.172455
11.93 266.583862
11.94 272.735352
11.95 265.880737
11.96 258.44278
11.97 263.343811
11.98 265.924011
11.99 266.880676
12.00 267.790802
12.01 261.372711
12.02 258.305817
12.03 263.990784
12.04 268.960297
12.05 270.971344
12.06 265.011505
12.07 261.063721
12.08 262.240173
12.09 264.860626
12.10 272.245331
12.11 268.896301
12.12 266.51944
12.13 271.134003
12.14 274.974396
12.15 274.520813
12.16 270.004578
12.17 267.709564
12.18 263.779236
12.19 263.595825
12.20 265.71347
12.21 275.860321
12.22 285.656036
12.23 290.586456
12.24 294.118134
12.25 288.73233
12.26 283.352081
12.27 275.523315
12.28 268.09256
12.29 270.562012
12.30 274.983887
12.31 273.4823
12.32 280.101746
12.33 289.392548
12.34 287.318787
12.35 280.884766
12.36 279.459106
12.37 283.643433
12.38 285.973724
12.39 278.107697
12.40 277.364258
12.41 281.882599
12.42 281.762512
12.43 282.286987
12.44 282.094818
12.45 283.96936
12.46 287.017883
12.47 282.178223
12.48 278.893005
12.49 287.199982
12.50 290.041992
12.51 279.963776
12.52 272.942291
12.53 274.838379
12.54 273.901855
12.55 276.353241
12.56 284.379639
12.57 289.173309
12.58 294.35733
12.59 294.267944
12.60 293.970734
12.61 300.141357
12.62 298.500488
12.63 296.2341
12.64 299.48938
12.65 302.321564
12.66 306.480499
12.67 311.882446
12.68 309.473267
12.69 307.249756
12.70 302.977264
12.71 291.149109
12.72 287.620758
12.73 286.954498
12.74 291.174103
12.75 304.034698
12.76 307.837311
12.77 302.168701
12.78 300.14621
12.79 300.508545
12.80 296.638
12.81 296.483826
12.82 302.221649
12.83 305.870758
12.84 313.909576
12.85 316.757965
12.86 308.346985
12.87 309.48877
12.88 303.756378
12.89 293.287537
12.90 294.923706
12.91 297.126099
12.92 299.958221
12.93 298.546509
12.94 296.078979
12.95 306.469788
12.96 313.218048
12.97 309.021515
12.98 300.686859
12.99 291.651306
13.00 287.357605
13.01 293.454803
13.02 295.553497
13.03 292.914703
13.04 291.023071
13.05 290.698517
13.06 289.76123
13.07 295.080688
13.08 302.517334
13.09 296.117126
13.10 294.621918
13.11 299.325134
13.12 292.041809
13.13 284.915009
13.14 281.651306
13.15 284.428802
13.16 298.994263
13.17 297.155853
13.18 284.537109
13.19 285.350647
13.20 285.928589
13.21 291.932159
13.22 296.763214
13.23 298.33078
13.24 297.322449
13.25 285.8508
13.26 286.368225
13.27 291.487
13.28 288.199585
13.29 285.994385
13.30 281.103088
13.31 286.914886
13.32 289.246857
13.33 288.267883
13.34 283.523163
13.35 278.428772
13.36 280.921326
13.37 278.649719
13.38 287.414917
13.39 297.966278
13.40 297.892334
13.41 290.198334
13.42 288.246918
13.43 290.838013
13.44 292.062225
13.45 291.352142
13.46 284.009338
13.47 290.289551
13.48 302.418854
13.49 296.855774
13.50 296.122131
13.51 300.479767
13.52 299.60321
13.53 303.771851
13.54 301.966522
13.55 299.571808
13.56 304.679352
13.57 311.940674
13.58 308.995453
13.59 300.669373
13.60 301.762207
13.61 299.880219
13.62 297.582916
13.63 300.272125
13.64 298.644836
13.65 299.17926
13.66 307.509613
13.67 309.414734
13.68 313.258575
13.69 316.50354
13.70 311.409302
13.71 302.778961
13.72 292.353088
13.73 291.549683
13.74 301.141754
13.75 306.362671
13.76 307.192505
13.77 310.610748
13.78 313.714447
13.79 313.336823
13.80 306.684723
13.81 295.856171
13.82 299.989044
13.83 313.251709
13.84 311.557861
13.85 301.982086
13.86 304.460388
13.87 307.5672
13.88 309.657013
13.89 306.093689
13.90 304.237671
13.91 304.362244
13.92 299.517639
13.93 306.945587
13.94 316.105682
13.95 320.672363
13.96 317.017731
13.97 314.401398
13.98 319.032013
13.99 321.34436
14.00 313.289825
14.01 307.020386
14.02 317.786652
14.03 322.398956
14.04 313.954865
14.05 303.994324
14.06 306.822205
14.07 309.306519
14.08 312.10968
14.09 318.084534
14.10 315.124664
14.11 312.404877
14.12 308.804657
14.13 317.180206
14.14 330.601379
14.15 327.202057
14.16 319.122589
14.17 315.793182
14.18 316.352478
14.19 311.743652
14.20 318.549896
14.21 324.952942
14.22 317.564392
14.23 321.334564
14.24 324.72995
14.25 327.731201
14.26 333.771881
14.27 341.868774
14.28 344.564728
14.29 345.144043
14.30 341.993988
14.31 333.141388
14.32 340.963257
14.33 347.698181
14.34 348.820923
14.35 353.515045
14.36 356.692108
14.37 352.828522
14.38 354.894531
14.39 359.668793
14.40 357.723999
14.41 361.273987
14.42 367.315277
14.43 372.526794
14.44 377.985718
14.45 385.170166
14.46 392.011597
14.47 392.722504
14.48 392.002258
14.49 397.061981
14.50 403.791107
14.51 414.723145
14.52 424.603424
14.53 426.243011
14.54 419.019104
14.55 416.276245
14.56 411.716858
14.57 411.557892
14.58 413.498535
14.59 409.109222
14.60 419.681274
14.61 432.234192
14.62 431.432343
14.63 430.19632
14.64 432.47525
14.65 420.20224
14.66 414.728333
14.67 414.339447
14.68 419.796692
14.69 423.759827
14.70 424.119476
14.71 425.17688
14.72 421.841919
14.73 427.133545
14.74 425.461884
14.75 419.832581
14.76 413.050781
14.77 411.501617
14.78 416.647217
14.79 413.959229
14.80 411.253052
14.81 420.108765
14.82 421.667877
14.83 416.222961
14.84 411.232574
14.85 410.35437
14.86 411.681183
14.87 418.325562
14.88 414.263916
14.89 421.859344
14.90 431.692047
14.91 433.607483
14.92 431.872223
14.93 437.105347
14.94 444.698883
14.95 447.957062
14.96 461.524689
14.97 470.27301
14.98 475.976898
14.99 471.823029
15.00 464.29068
15.01 462.334198
15.02 475.308685
15.03 486.329498
15.04 497.189941
15.05 506.112427
15.06 515.314941
15.07 524.575562
15.08 530.270386
15.09 535.042786
15.10 557.665161
15.11 569.39856
15.12 581.034973
15.13 594.843018
15.14 603.40332
15.15 629.081543
15.16 641.739929
15.17 652.269958
15.18 653.483398
15.19 663.515503
15.20 672.072266
15.21 703.283508
15.22 727.602539
15.23 762.098572
15.24 793.779297
15.25 828.166992
15.26 845.025452
15.27 861.741638
15.28 890.385681
15.29 897.006348
15.30 915.456787
15.31 937.256531
15.32 973.826538
15.33 996.913574
15.34 1036.189331
15.35 1056.555542
15.36 1072.522339
15.37 1078.220703
15.38 1095.03894
15.39 1109.418091
15.40 1129.598877
15.41 1149.185913
15.42 1152.727783
15.43 1156.359619
15.44 1157.789551
15.45 1148.261963
15.46 1144.292114
15.47 1139.084351
15.48 1109.705566
15.49 1064.484863
15.50 1053.196533
15.51 993.826965
15.52 961.402222
15.53 919.054932
15.54 890.4198
15.55 865.106567
15.56 854.908386
15.57 809.949646
15.58 772.196228
15.59 751.450745
15.60 710.345215
15.61 670.639404
15.62 640.45636
15.63 630.795959
15.64 603.798279
15.65 585.297363
15.66 572.006592
15.67 557.391724
15.68 521.23761
15.69 515.088013
15.70 496.944458
15.71 481.65802
15.72 474.389557
15.73 464.173584
15.74 458.231842
15.75 451.680145
15.76 441.602356
15.77 444.791779
15.78 445.291718
15.79 431.288696
15.80 427.130585
15.81 423.813263
15.82 414.765869
15.83 402.074921
15.84 402.696747
15.85 405.015015
15.86 413.976196
15.87 417.734192
15.88 414.944122
15.89 400.781586
15.90 392.075836
15.91 388.692505
15.92 386.704895
15.93 387.712402
15.94 384.287811
15.95 384.716156
15.96 384.775482
15.97 387.521149
15.98 383.905945
15.99 378.374146
16.00 372.570007
16.01 367.347321
16.02 367.878571
16.03 368.636322
16.04 364.56839
16.05 362.822876
16.06 368.252502
16.07 366.681549
16.08 358.543396
16.09 356.781006
16.10 360.993958
16.11 368.879639
16.12 374.016663
16.13 365.547729
16.14 361.610596
16.15 362.197418
16.16 355.753296
16.17 352.117859
16.18 352.365265
16.19 361.552704
16.20 360.015564
16.21 351.609436
16.22 346.675629
16.23 352.048401
16.24 360.299927
16.25 351.937897
16.26 347.805115
16.27 346.039276
16.28 345.460022
16.29 346.186188
16.30 351.613739
16.31 348.756165
16.32 339.969604
16.33 349.306366
16.34 353.220764
16.35 350.306702
16.36 356.6026
16.37 354.094482
16.38 353.329193
16.39 353.732452
16.40 350.218506
16.41 348.382996
16.42 345.490753
16.43 346.350067
16.44 349.880615
16.45 348.940094
16.46 342.732178
16.47 339.96106
16.48 340.655518
16.49 343.235504
16.50 343.156494
16.51 347.058472
16.52 354.629639
16.53 354.966675
16.54 356.417908
16.55 351.978302
16.56 348.677155
16.57 351.722931
16.58 355.267059
16.59 349.152802
16.60 340.323669
16.61 342.71637
16.62 345.279785
16.63 343.695618
16.64 347.545013
16.65 354.312653
16.66 356.086212
16.67 356.795563
16.68 356.011353
16.69 356.684509
16.70 354.707184
16.71 348.767273
16.72 350.62619
16.73 353.034149
16.74 357.879517
16.75 358.977325
16.76 349.654327
16.77 341.803589
16.78 340.60022
16.79 336.803711
16.80 334.40152
16.81 342.782593
16.82 352.235291
16.83 350.020752
16.84 347.296478
16.85 353.286774
16.86 351.359375
16.87 354.738251
16.88 357.508301
16.89 351.853424
16.90 350.553772
16.91 344.598267
16.92 348.291351
16.93 349.922424
16.94 347.701447
16.95 352.259155
16.96 352.768921
16.97 348.327698
16.98 350.195374
16.99 346.953735
17.00 337.322327
17.01 337.309998
17.02 341.354767
17.03 350.020782
17.04 359.17337
17.05 356.981781
17.06 352.449585
17.07 355.506073
17.08 353.924042
17.09 351.238373
17.10 352.043915
17.11 347.583405
17.12 344.237701
17.13 349.587189
17.14 358.419159
17.15 357.770416
17.16 360.266113
17.17 362.181244
17.18 358.763611
17.19 354.152313
17.20 346.726501
17.21 347.375824
17.22 352.933411
17.23 350.604156
17.24 342.860992
17.25 352.131134
17.26 361.243439
17.27 364.385376
17.28 370.040436
17.29 366.270142
17.30 364.408783
17.31 366.499146
17.32 361.076569
17.33 354.650421
17.34 357.698822
17.35 362.168884
17.36 362.122589
17.37 362.612823
17.38 358.667145
17.39 352.255402
17.40 355.1922
17.41 362.176971
17.42 355.293945
17.43 351.101288
17.44 352.34845
17.45 353.193085
17.46 356.094727
17.47 359.564819
17.48 360.517609
17.49 353.028839
17.50 356.280853
17.51 365.905029
17.52 363.297699
17.53 365.210815
17.54 365.763397
17.55 367.222961
17.56 370.001129
17.57 360.571808
17.58 362.149963
17.59 363.02533
17.60 369.837341
17.61 372.148254
17.62 372.606354
17.63 374.461823
17.64 365.095856
17.65 358.064453
17.66 359.607056
17.67 366.410065
17.68 366.773132
17.69 372.277374
17.70 373.761932
17.71 365.748169
17.72 365.152405
17.73 366.020111
17.74 372.123779
17.75 380.429596
17.76 382.3237
17.77 380.321045
17.78 376.608734
17.79 376.082214
17.80 373.882599
17.81 374.700897
17.82 379.089813
17.83 383.026398
17.84 381.193512
17.85 380.758606
17.86 379.675629
17.87 379.337463
17.88 383.198761
17.89 386.507141
17.90 382.493805
17.91 379.619507
17.92 375.929138
17.93 376.411255
17.94 384.039398
17.95 382.100067
17.96 375.897888
17.97 376.908295
17.98 382.337952
17.99 381.75293
18.00 381.371033
18.01 384.456268
18.02 384.203125
18.03 381.759521
18.04 380.564331
18.05 383.093567
18.06 380.324097
18.07 375.992554
18.08 380.353729
18.09 384.246246
18.10 389.694031
18.11 389.881714
18.12 389.188934
18.13 392.648041
18.14 394.165985
18.15 385.290985
18.16 378.891418
18.17 373.743439
18.18 370.917786
18.19 373.481293
18.20 378.919403
18.21 390.948181
18.22 393.45343
18.23 385.379944
18.24 384.892273
18.25 386.016937
18.26 388.320587
18.27 393.925842
18.28 398.090759
18.29 393.377289
18.30 385.235413
18.31 395.362823
18.32 399.098022
18.33 395.812317
18.34 397.367523
18.35 396.726593
18.36 393.667664
18.37 387.281494
18.38 381.631927
18.39 381.442505
18.40 388.883392
18.41 397.39856
18.42 395.512939
18.43 394.835754
18.44 396.764282
18.45 400.209564
18.46 400.212677
18.47 395.045532
18.48 389.556854
18.49 390.464691
18.50 402.10791
18.51 414.454498
18.52 415.234039
18.53 406.858795
18.54 402.602631
18.55 404.615509
18.56 407.785828
18.57 407.010834
18.58 403.234497
18.59 401.942657
18.60 400.165222
18.61 399.374664
18.62 396.35318
18.63 391.43045
18.64 393.655365
18.65 398.86142
18.66 398.901062
18.67 401.901825
18.68 402.477905
18.69 398.455566
18.70 398.372711
18.71 398.952728
18.72 404.187073
18.73 408.117615
18.74 404.486053
18.75 400.944824
18.76 407.230835
18.77 405.440704
18.78 402.41507
18.79 395.376709
18.80 384.280457
18.81 385.217102
18.82 401.098969
18.83 413.390045
18.84 412.545776
18.85 408.426666
18.86 403.25235
18.87 401.695679
18.88 405.402374
18.89 411.92157
18.90 416.699188
18.91 413.758148
18.92 411.336487
18.93 406.077026
18.94 402.465668
18.95 404.332001
18.96 402.214508
18.97 394.103912
18.98 395.837494
18.99 398.396362
19.00 392.166534
19.01 398.177704
19.02 400.628265
19.03 400.377075
19.04 399.474152
19.05 400.462585
19.06 403.094391
19.07 410.005127
19.08 412.633026
19.09 414.514862
19.10 412.067932
19.11 403.556396
19.12 409.598816
19.13 417.737915
19.14 421.563629
19.15 417.288635
19.16 411.920532
19.17 410.383484
19.18 406.910736
19.19 408.973724
19.20 411.993073
19.21 408.641754
19.22 407.998657
19.23 411.925354
19.24 419.677765
19.25 423.545013
19.26 419.360748
19.27 416.854584
19.28 423.928101
19.29 426.824493
19.30 421.255249
19.31 423.784302
19.32 422.326019
19.33 421.204132
19.34 423.434784
19.35 423.678497
19.36 428.39679
19.37 424.790985
19.38 421.294525
19.39 423.249359
19.40 438.718323
19.41 444.656128
19.42 436.075897
19.43 430.743835
19.44 430.142059
19.45 427.292084
19.46 431.982758
19.47 437.793243
19.48 434.767181
19.49 436.557068
19.50 435.762665
19.51 433.388062
19.52 430.322845
19.53 432.060028
19.54 433.470245
19.55 432.91037
19.56 436.127319
19.57 435.076019
19.58 430.629791
19.59 430.686646
19.60 435.518707
19.61 441.763123
19.62 438.099365
19.63 434.227692
19.64 441.93042
19.65 440.14212
19.66 431.180634
19.67 427.609009
19.68 424.091583
19.69 433.040863
19.70 442.051575
19.71 442.863098
19.72 444.607788
19.73 441.874237
19.74 440.962982
19.75 441.202148
19.76 438.561035
19.77 437.775085
19.78 445.480042
19.79 452.253265
19.80 448.96167
19.81 447.777344
19.82 442.988983
19.83 443.704987
19.84 448.780182
19.85 445.182922
19.86 442.746704
19.87 447.80603
19.88 443.2099
19.89 434.890808
19.90 436.77182
19.91 441.641052
19.92 444.820374
19.93 443.378571
19.94 446.210052
19.95 457.720551
19.96 455.53894
19.97 449.00708
19.98 449.321655
19.99 450.147247
20.00 449.434082
20.01 440.824005
20.02 440.175507
20.03 438.936584
20.04 434.818848
20.05 443.187286
20.06 447.679657
20.07 446.855743
20.08 456.876404
20.09 463.292877
20.10 458.948303
20.11 460.19223
20.12 463.035767
20.13 461.890198
20.14 461.085541
20.15 457.952209
20.16 456.403107
20.17 457.492004
20.18 462.044342
20.19 464.682648
20.20 465.661102
20.21 466.47467
20.22 461.17688
20.23 455.29715
20.24 452.134064
20.25 451.402557
20.26 464.756989
20.27 469.19397
20.28 462.56665
20.29 460.493042
20.30 460.492615
20.31 460.028442
20.32 462.466492
20.33 469.483154
20.34 474.616516
20.35 474.610535
20.36 473.145447
20.37 470.966064
20.38 476.072754
20.39 477.55661
20.40 472.34729
20.41 474.78949
20.42 477.407013
20.43 472.881622
20.44 470.810577
20.45 475.005432
20.46 476.32431
20.47 481.373047
20.48 493.342285
20.49 492.493652
20.50 483.042725
20.51 481.955688
20.52 482.547333
20.53 472.732788
20.54 461.93576
20.55 460.999908
20.56 464.994934
20.57 470.912689
20.58 468.967133
20.59 473.499084
20.60 482.041443
20.61 478.020386
20.62 473.255249
20.63 468.567413
20.64 466.670959
20.65 469.812439
20.66 476.387604
20.67 479.895721
20.68 480.747955
20.69 487.702972
20.70 485.485565
20.71 488.390167
20.72 495.391449
20.73 494.541443
20.74 495.504181
20.75 499.14328
20.76 499.175323
20.77 506.353485
20.78 504.236206
20.79 494.685883
20.80 490.615479
20.81 487.980011
20.82 487.711792
20.83 488.59549
20.84 492.198517
20.85 491.411133
20.86 489.079346
20.87 493.064819
20.88 497.739868
20.89 501.059479
20.90 499.534271
20.91 499.394104
20.92 497.581024
20.93 493.415588
20.94 491.358551
20.95 496.469086
20.96 500.322662
20.97 506.458282
20.98 502.168488
20.99 496.702911
21.00 492.790619
21.01 495.58783
21.02 500.184998
21.03 500.099976
21.04 491.342682
21.05 489.564178
21.06 497.633331
21.07 495.1185
21.08 490.006775
21.09 497.25235
21.10 504.007507
21.11 501.317993
21.12 495.782013
21.13 496.927032
21.14 494.78772
21.15 496.149628
21.16 503.643341
21.17 503.645844
21.18 500.691895
21.19 498.017761
21.20 496.778595
21.21 494.305756
21.22 497.219849
21.23 501.187225
21.24 502.303436
21.25 498.752197
21.26 501.047699
21.27 508.602844
21.28 517.430725
21.29 519.96106
21.30 517.762512
21.31 521.222656
21.32 523.255066
21.33 521.312622
21.34 522.135925
21.35 521.561035
21.36 515.462219
21.37 507.93576
21.38 507.904266
21.39 519.351135
21.40 521.717346
21.41 517.049927
21.42 516.620361
21.43 518.591736
21.44 518.447693
21.45 517.395508
21.46 514.361816
21.47 518.733887
21.48 525.534058
21.49 524.920715
21.50 529.461731
21.51 528.30542
21.52 522.853577
21.53 521.130371
21.54 525.102356
21.55 533.78363
21.56 529.218445
21.57 531.303528
21.58 531.693115
21.59 523.418091
21.60 525.929626
21.61 526.104309
21.62 531.397888
21.63 537.31073
21.64 534.305542
21.65 537.781677
21.66 542.214233
21.67 544.347717
21.68 544.044678
21.69 540.75708
21.70 542.6875
21.71 549.217346
21.72 555.906189
21.73 555.84137
21.74 550.966675
21.75 551.744751
21.76 559.968872
21.77 561.043335
21.78 558.703308
21.79 557.471436
21.80 562.135071
21.81 562.779114
21.82 558.519653
21.83 559.396973
21.84 560.893494
21.85 561.638611
21.86 561.935486
21.87 562.493835
21.88 566.919006
21.89 572.757446
21.90 571.505737
21.91 565.215149
21.92 559.80249
21.93 551.594116
21.94 554.589355
21.95 562.825134
21.96 558.140381
21.97 552.266113
21.98 555.273743
21.99 557.127075
22.00 560.449463
22.01 561.738403
22.02 554.098816
22.03 548.995422
22.04 547.822388
22.05 545.307495
22.06 544.160217
22.07 541.244812
22.08 536.846375
22.09 542.889587
22.10 548.050049
22.11 545.407104
22.12 548.459534
22.13 553.113647
22.14 549.612122
22.15 549.615051
22.16 555.383545
22.17 550.087341
22.18 546.51825
22.19 542.494446
22.20 541.664307
22.21 538.886963
22.22 539.801331
22.23 550.295898
22.24 551.820313
22.25 543.915833
22.26 542.841248
22.27 550.068481
22.28 547.818787
22.29 544.502869
22.30 540.092529
22.31 540.689514
22.32 536.066711
22.33 532.254822
22.34 534.554138
22.35 539.819275
22.36 544.615479
22.37 545.967712
22.38 547.085266
22.39 541.872192
22.40 543.408997
22.41 544.190674
22.42 542.414429
22.43 541.525024
22.44 543.195801
22.45 546.115845
22.46 542.398315
22.47 549.176392
22.48 556.638123
22.49 546.958618
22.50 545.110107
22.51 549.379333
22.52 556.921265
22.53 566.279236
22.54 567.647461
22.55 568.445496
22.56 567.283264
22.57 568.682983
22.58 568.371338
22.59 565.593445
22.60 567.458435
22.61 562.539734
22.62 549.997131
22.63 537.254456
22.64 530.216309
22.65 541.550293
22.66 551.918518
22.67 551.778687
22.68 544.267151
22.69 546.379089
22.70 551.531433
22.71 559.082336
22.72 567.654846
22.73 564.718933
22.74 560.891785
22.75 562.590088
22.76 562.465942
22.77 565.054932
22.78 564.299988
22.79 560.075439
22.80 554.236206
22.81 548.628662
22.82 546.423889
22.83 543.052795
22.84 545.469055
22.85 552.713074
22.86 555.966797
22.87 556.233826
22.88 552.958557
22.89 548.323669
22.90 552.235229
22.91 560.321838
22.92 559.87323
22.93 566.424072
22.94 566.850098
22.95 562.140381
22.96 562.536072
22.97 561.604553
22.98 558.484802
22.99 563.558655
23.00 570.506409
23.01 571.981079
23.02 570.840332
23.03 561.852844
23.04 562.931519
23.05 569.135559
23.06 569.627686
23.07 567.227783
23.08 567.915833
23.09 567.785217
23.10 561.086365
23.11 558.91748
23.12 556.57312
23.13 557.986877
23.14 557.688904
23.15 550.492004
23.16 549.807007
23.17 552.315491
23.18 554.505615
23.19 556.182678
23.20 559.383606
23.21 556.976685
23.22 548.383057
23.23 553.535767
23.24 558.247925
23.25 563.576904
23.26 571.149353
23.27 572.435791
23.28 570.352539
23.29 573.802063
23.30 573.002258
23.31 572.841675
23.32 569.586243
23.33 564.885193
23.34 566.845459
23.35 566.416199
23.36 562.61615
23.37 566.63031
23.38 565.854309
23.39 559.832214
23.40 562.639587
23.41 569.866882
23.42 567.677185
23.43 571.170593
23.44 581.541809
23.45 573.06842
23.46 564.257874
23.47 559.873657
23.48 563.727539
23.49 572.189514
23.50 573.601929
23.51 575.252075
23.52 580.530823
23.53 578.583191
23.54 577.170227
23.55 582.91449
23.56 574.911804
23.57 573.276489
23.58 581.987183
23.59 584.331116
23.60 576.772949
23.61 572.547974
23.62 575.560974
23.63 574.436401
23.64 577.498718
23.65 583.133179
23.66 585.455994
23.67 586.125427
23.68 580.257751
23.69 565.488281
23.70 564.290405
23.71 571.338562
23.72 575.15564
23.73 576.153564
23.74 578.523743
23.75 586.248962
23.76 592.198608
23.77 589.095276
23.78 579.846863
23.79 579.999695
23.80 580.855469
23.81 584.338989
23.82 592.503479
23.83 587.261108
23.84 583.964844
23.85 584.426392
23.86 574.690613
23.87 576.08728
23.88 585.95343
23.89 588.456604
23.90 581.420288
23.91 574.325195
23.92 567.596985
23.93 565.805542
23.94 561.900757
23.95 560.898071
23.96 564.266968
23.97 569.539978
23.98 572.321045
23.99 570.399658
24.00 572.752991
24.01 568.356689
24.02 565.443054
24.03 574.262695
24.04 581.479553
24.05 577.635681
24.06 573.792969
24.07 574.873474
24.08 579.547424
24.09 581.758728
24.10 579.829529
24.11 572.796265
24.12 569.505615
24.13 570.191345
24.14 563.43103
24.15 554.142822
24.16 562.826782
24.17 568.642761
24.18 567.674622
24.19 569.91272
24.20 575.253418
24.21 579.406616
24.22 588.301453
24.23 593.174683
24.24 586.036499
24.25 582.688538
24.26 582.8078
24.27 580.739441
24.28 581.047791
24.29 579.996765
24.30 579.061829
24.31 583.139648
24.32 584.604736
24.33 585.812378
24.34 578.717773
24.35 574.344666
24.36 575.955811
24.37 578.403198
24.38 578.153931
24.39 578.453186
24.40 575.855652
24.41 576.800293
24.42 571.11554
24.43 567.013611
24.44 579.550415
24.45 588.380066
24.46 586.984192
24.47 592.25061
24.48 591.931824
24.49 586.915222
24.50 588.139526
24.51 590.451965
24.52 590.342773
24.53 593.345337
24.54 590.592529
24.55 587.228699
24.56 582.372803
24.57 573.852844
24.58 569.200745
24.59 572.196777
24.60 577.026733
24.61 578.757996
24.62 580.470581
24.63 583.876648
24.64 580.500916
24.65 575.72229
24.66 578.733521
24.67 580.926453
24.68 576.406372
24.69 573.507874
24.70 576.649292
24.71 575.098389
24.72 572.969604
24.73 576.607422
24.74 577.459167
24.75 574.28241
24.76 573.588562
24.77 574.614624
24.78 571.200073
24.79 570.103394
24.80 573.749268
24.81 578.910522
24.82 580.678711
24.83 580.793152
24.84 577.871338
24.85 577.120117
24.86 581.339355
24.87 587.450928
24.88 587.505981
24.89 581.143433
24.90 576.181763
24.91 579.280457
24.92 586.191284
24.93 593.536377
24.94 594.558289
24.95 587.004578
24.96 584.486572
24.97 590.21991
24.98 590.731995
24.99 589.057495
25.00 586.502197
25.01 583.750977
25.02 578.357056
25.03 579.879333
25.04 577.957092
25.05 573.903076
25.06 571.421387
25.07 575.698425
25.08 582.576111
25.09 587.239197
25.10 583.7005
25.11 579.114624
25.12 586.417175
25.13 595.935486
25.14 598.462952
25.15 589.0047
25.16 584.236389
25.17 581.409119
25.18 584.402466
25.19 580.441345
25.20 575.902832
25.21 571.373779
25.22 575.090759
25.23 579.153381
25.24 584.635315
25.25 589.42395
25.26 587.969238
25.27 588.267273
25.28 584.499756
25.29 586.265381
25.30 582.330383
25.31 579.410522
25.32 583.771851
25.33 582.290894
25.34 581.389404
25.35 584.645935
25.36 589.547852
25.37 581.413513
25.38 570.579956
25.39 580.03009
25.40 580.937744
25.41 563.635803
25.42 566.459045
25.43 573.117126
25.44 573.065308
25.45 575.605652
25.46 577.722412
25.47 583.784607
25.48 592.059937
25.49 595.813538
25.50 597.498962
25.51 596.102539
25.52 595.255981
25.53 591.47937
25.54 587.932983
25.55 584.052246
25.56 578.757935
25.57 578.492676
25.58 577.10321
25.59 576.540466
25.60 584.382263
25.61 588.673096
25.62 586.480774
25.63 590.451721
25.64 588.638245
25.65 586.83844
25.66 585.413452
25.67 583.31012
25.68 580.97467
25.69 583.673584
25.70 585.164917
25.71 583.930969
25.72 586.355652
25.73 588.404785
25.74 589.892517
25.75 586.526672
25.76 583.162415
25.77 584.300842
25.78 584.433228
25.79 582.142212
25.80 578.704224
25.81 580.574951
25.82 581.24939
25.83 577.017273
25.84 569.470581
25.85 572.504761
25.86 580.49884
25.87 583.79126
25.88 585.747253
25.89 581.701904
25.90 581.285828
25.91 584.049744
25.92 580.697571
25.93 572.334717
25.94 574.464111
25.95 580.096497
25.96 586.343933
25.97 587.663696
25.98 583.184082
25.99 582.26593
26.00 581.144104
26.01 581.352051
26.02 578.823181
26.03 571.655029
26.04 576.858521
26.05 587.672607
26.06 588.122559
26.07 593.935791
26.08 592.102966
26.09 589.188049
26.10 591.946777
26.11 590.649475
26.12 579.332581
26.13 574.323547
26.14 578.547363
26.15 585.009277
26.16 584.312256
26.17 578.191406
26.18 578.045471
26.19 575.257874
26.20 572.652588
26.21 573.10144
26.22 575.358643
26.23 578.955505
26.24 578.445251
26.25 573.210754
26.26 570.584473
26.27 574.173828
26.28 575.211792
26.29 574.743408
26.30 577.184875
26.31 576.644775
26.32 578.244507
26.33 574.124084
26.34 576.200745
26.35 585.760803
26.36 587.896118
26.37 576.851929
26.38 574.592957
26.39 582.169922
26.40 580.737488
26.41 582.067566
26.42 574.821045
26.43 563.155029
26.44 560.758301
26.45 566.139709
26.46 567.816895
26.47 567.514343
26.48 573.642029
26.49 581.809631
26.50 577.41217
26.51 574.893616
26.52 570.666748
26.53 565.804871
26.54 572.766724
26.55 577.275269
26.56 575.250793
26.57 576.387451
26.58 580.470764
26.59 577.831726
26.60 575.415283
26.61 576.739807
26.62 571.072266
26.63 562.776123
26.64 563.20166
26.65 574.490784
26.66 575.553467
26.67 567.188843
26.68 575.489929
26.69 579.552856
26.70 574.414368
26.71 580.215088
26.72 579.463074
26.73 571.256409
26.74 572.427368
26.75 576.565308
26.76 571.876953
26.77 565.354797
26.78 563.267334
26.79 563.269775
26.80 559.595154
26.81 558.61554
26.82 563.280701
26.83 565.252075
26.84 564.654785
26.85 573.772705
26.86 573.758606
26.87 570.478149
26.88 570.815979
26.89 578.201904
26.90 586.997314
26.91 591.375427
26.92 592.326538
26.93 587.726624
26.94 578.799316
26.95 574.413879
26.96 569.389771
26.97 566.387939
26.98 568.14386
26.99 571.979797
27.00 568.698975
27.01 572.41272
27.02 577.933105
27.03 576.646301
27.04 571.536255
27.05 569.705872
27.06 567.26947
27.07 563.033386
27.08 560.480408
27.09 566.145935
27.10 569.267212
27.11 565.713501
27.12 562.921387
27.13 564.288696
27.14 568.196533
27.15 568.94873
27.16 568.847534
27.17 571.735291
27.18 576.404785
27.19 568.561768
27.20 565.509216
27.21 571.136108
27.22 571.240417
27.23 567.242615
27.24 565.267395
27.25 560.379883
27.26 555.273987
27.27 559.811584
27.28 558.087158
27.29 556.029175
27.30 568.504639
27.31 574.462402
27.32 573.813904
27.33 571.08252
27.34 573.888733
27.35 573.688232
27.36 571.470703
27.37 568.271301
27.38 564.506714
27.39 562.177795
27.40 561.046631
27.41 561.902649
27.42 563.279663
27.43 566.737366
27.44 566.448181
27.45 564.804382
27.46 570.818665
27.47 570.235352
27.48 568.647034
27.49 568.923889
27.50 568.988037
27.51 566.245361
27.52 566.277466
27.53 563.24469
27.54 566.921021
27.55 571.708191
27.56 566.453735
27.57 561.852722
27.58 555.860352
27.59 558.471497
27.60 570.737732
27.61 570.870789
27.62 560.27002
27.63 560.875122
27.64 572.004028
27.65 573.897766
27.66 577.294556
27.67 578.245667
27.68 582.392822
27.69 584.502869
27.70 582.260864
27.71 578.686951
27.72 581.650452
27.73 576.247375
27.74 567.999451
27.75 567.80835
27.76 572.671753
27.77 578.267151
27.78 576.01825
27.79 562.956909
27.80 557.451904
27.81 554.681091
27.82 554.528076
27.83 565.068787
27.84 574.177307
27.85 569.385071
27.86 568.624817
27.87 570.573364
27.88 573.812012
27.89 575.687439
27.90 575.750122
27.91 567.141602
27.92 561.483521
27.93 557.382629
27.94 548.649353
27.95 554.061401
27.96 558.987793
27.97 558.209656
27.98 557.547974
27.99 557.121155
28.00 559.893494
28.01 562.068176
28.02 564.230774
28.03 564.025757
28.04 564.5
28.05 566.286499
28.06 560.013855
28.07 554.288818
28.08 548.45813
28.09 548.536987
28.10 560.637329
28.11 563.384766
28.12 566.830994
28.13 570.057007
28.14 564.867371
28.15 563.978577
28.16 562.132935
28.17 555.085632
28.18 559.94043
28.19 564.768188
28.20 561.243225
28.21 560.08252
28.22 563.743347
28.23 563.682373
28.24 567.762878
28.25 572.165894
28.26 570.550049
28.27 563.692139
28.28 562.060669
28.29 561.325623
28.30 559.263977
28.31 568.997681
28.32 579.847107
28.33 569.535706
28.34 565.239929
28.35 566.902649
28.36 563.811646
28.37 560.471436
28.38 555.161865
28.39 553.130188
28.40 556.211365
28.41 555.028076
28.42 556.100952
28.43 558.129639
28.44 556.678772
28.45 552.480347
28.46 549.392273
28.47 550.422546
28.48 557.950256
28.49 564.38269
28.50 563.646973
28.51 562.178406
28.52 561.249817
28.53 554.889038
28.54 551.338501
28.55 561.166016
28.56 566.605164
28.57 561.903564
28.58 563.062744
28.59 562.980225
28.60 561.864258
28.61 562.861694
28.62 561.544312
28.63 559.661865
28.64 561.1828
28.65 554.434631
28.66 547.393127
28.67 552.604431
28.68 553.482788
28.69 551.625977
28.70 551.341064
28.71 544.350281
28.72 543.787842
28.73 552.255615
28.74 554.556335
28.75 556.644714
28.76 555.437073
28.77 556.920227
28.78 561.990356
28.79 563.614441
28.80 561.360657
28.81 563.077454
28.82 561.685181
28.83 558.310791
28.84 562.307678
28.85 561.614197
28.86 552.957214
28.87 547.557251
28.88 546.187073
28.89 553.763428
28.90 564.660706
28.91 563.647339
28.92 559.130432
28.93 557.184753
28.94 558.755005
28.95 566.486572
28.96 564.28949
28.97 560.287598
28.98 562.994873
28.99 562.268005
29.00 560.690186
29.01 558.43335
29.02 556.976135
29.03 560.085022
29.04 567.846863
29.05 565.506653
29.06 558.070068
29.07 562.455505
29.08 565.518494
29.09 566.992798
29.10 569.166687
29.11 562.011108
29.12 554.457092
29.13 552.960999
29.14 558.996704
29.15 562.316528
29.16 559.075134
29.17 558.430969
29.18 557.08313
29.19 554.124146
29.20 552.855469
29.21 545.842773
29.22 543.809143
29.23 543.291748
29.24 550.940979
29.25 556.136169
29.26 548.646362
29.27 548.290222
29.28 557.726807
29.29 563.88739
29.30 563.356567
29.31 561.282593
29.32 561.542786
29.33 561.227539
29.34 562.642944
29.35 566.927795
29.36 567.124451
29.37 564.805298
29.38 564.815979
29.39 572.00946
29.40 566.29126
29.41 559.733704
29.42 560.941956
29.43 561.043884
29.44 563.457397
29.45 564.047852
29.46 567.529968
29.47 568.56134
29.48 566.953857
29.49 574.948914
29.50 578.145752
29.51 579.295044
29.52 583.598145
29.53 583.5672
29.54 580.018066
29.55 582.964844
29.56 578.380615
29.57 578.614807
29.58 578.966919
29.59 571.33136
29.60 569.086487
29.61 565.197083
29.62 563.54425
29.63 561.069946
29.64 559.951477
29.65 563.632263
29.66 569.215088
29.67 569.999817
29.68 567.437317
29.69 560.717346
29.70 560.998901
29.71 562.682983
29.72 565.698608
29.73 570.835938
29.74 568.049255
29.75 557.147461
29.76 553.597473
29.77 558.332214
29.78 559.910767
29.79 555.970215
29.80 560.897034
29.81 554.867126
29.82 548.899536
29.83 545.301453
29.84 545.954651
29.85 552.180298
29.86 551.24054
29.87 553.167969
29.88 552.698242
29.89 546.882324
29.90 548.427795
29.91 554.400879
29.92 547.450745
29.93 538.373474
29.94 537.380005
29.95 540.656677
29.96 542.457153
29.97 539.198242
29.98 543.007629
29.99 551.793945
30.00 556.101746
30.01 551.940796
30.02 545.582214
30.03 537.016907
30.04 538.82959
30.05 540.84906
30.06 541.489868
30.07 544.314026
30.08 548.724976
30.09 552.287292
30.10 548.852478
30.11 546.097595
30.12 551.168335
30.13 557.010986
30.14 551.819092
30.15 544.257568
30.16 546.358521
30.17 546.186035
30.18 542.052185
30.19 539.173645
30.20 541.346924
30.21 539.569153
30.22 538.510437
30.23 543.84668
30.24 541.32019
30.25 547.351074
30.26 553.582764
30.27 554.412537
30.28 554.893433
30.29 543.710327
30.30 536.373474
30.31 545.414551
30.32 546.129578
30.33 549.199463
30.34 552.77179
30.35 549.417725
30.36 550.788513
30.37 551.044189
30.38 553.421387
30.39 553.579895
30.40 551.187805
30.41 550.839783
30.42 550.296692
30.43 552.427307
30.44 548.944763
30.45 553.359436
30.46 560.975769
30.47 555.700012
30.48 551.479736
30.49 551.252136
30.50 542.428406
30.51 547.783691
30.52 554.999756
30.53 555.048157
30.54 557.944824
30.55 564.921143
30.56 561.288574
30.57 554.236877
30.58 554.647034
30.59 555.692627
30.60 553.965271
30.61 554.153687
30.62 546.441589
30.63 546.451782
30.64 550.617188
30.65 549.305908
30.66 546.869934
30.67 547.956787
30.68 554.018677
30.69 556.893921
30.70 562.283325
30.71 561.30011
30.72 550.565063
30.73 554.083984
30.74 566.045227
30.75 563.71991
30.76 563.217468
30.77 570.87854
30.78 568.209534
30.79 565.549316
30.80 565.27478
30.81 568.508057
30.82 572.463501
30.83 574.16748
30.84 576.680359
30.85 578.590637
30.86 581.364258
30.87 581.988586
30.88 579.376221
30.89 579.699402
30.90 580.343384
30.91 577.310608
30.92 576.377136
30.93 586.523193
30.94 600.542908
30.95 610.305847
30.96 611.198792
30.97 617.703918
30.98 621.829712
30.99 621.415039
31.00 625.797424
31.01 640.303284
31.02 651.051819
31.03 662.016785
31.04 675.776855
31.05 687.711304
31.06 699.752014
31.07 703.041077
31.08 710.465637
31.09 715.899292
31.10 728.018616
31.11 732.289734
31.12 741.270752
31.13 754.093933
31.14 769.667786
31.15 785.83551
31.16 792.420593
31.17 791.74646
31.18 787.382996
31.19 788.541931
31.20 798.012512
31.21 794.722229
31.22 789.336304
31.23 788.179382
31.24 769.943054
31.25 756.086792
31.26 739.535095
31.27 741.222778
31.28 734.288269
31.29 722.817627
31.30 716.386902
31.31 707.091553
31.32 696.576599
31.33 688.895081
31.34 677.384827
31.35 650.340149
31.36 645.69281
31.37 639.213867
31.38 635.014465
31.39 624.075745
31.40 614.994751
31.41 605.485352
31.42 596.988525
31.43 591.640625
31.44 592.587097
31.45 586.754822
31.46 572.958191
31.47 566.245605
31.48 563.387817
31.49 561.549255
31.50 557.504578
31.51 554.526245
31.52 549.619507
31.53 544.588745
31.54 542.532837
31.55 538.746704
31.56 544.793396
31.57 546.628296
31.58 546.769836
31.59 544.532715
31.60 537.910828
31.61 532.884155
31.62 526.741943
31.63 521.171753
31.64 520.69519
31.65 524.363647
31.66 530.138855
31.67 535.469177
31.68 534.411682
31.69 528.938538
31.70 524.672241
31.71 526.011719
31.72 524.927734
31.73 519.634766
31.74 518.630005
31.75 514.822754
31.76 513.840576
31.77 519.540222
31.78 526.184448
31.79 526.769775
31.80 521.719238
31.81 517.987793
31.82 521.056091
31.83 519.209045
31.84 514.534302
31.85 514.215027
31.86 511.229645
31.87 503.602997
31.88 498.915894
31.89 501.545563
31.90 504.991547
31.91 506.579773
31.92 506.972778
31.93 509.316528
31.94 505.303284
31.95 504.058716
31.96 505.112183
31.97 504.243164
31.98 502.103821
31.99 505.980957
32.00 507.892334
32.01 508.864777
32.02 512.204285
32.03 513.238037
32.04 508.613647
32.05 509.12439
32.06 509.321381
32.07 508.070465
32.08 508.451508
32.09 507.448029
32.10 505.330109
32.11 503.268066
32.12 500.912872
32.13 503.627594
32.14 507.429535
32.15 507.581604
32.16 503.657013
32.17 502.419556
32.18 502.412445
32.19 496.888519
32.20 489.058929
32.21 487.119507
32.22 492.245544
32.23 499.143066
32.24 496.74234
32.25 494.633362
32.26 504.068848
32.27 510.805267
32.28 509.587921
32.29 502.906555
32.30 495.07019
32.31 489.535339
32.32 492.825653
32.33 495.89505
32.34 491.283142
32.35 492.658081
32.36 494.525848
32.37 499.501282
32.38 501.223938
32.39 494.833618
32.40 491.25061
32.41 494.660645
32.42 490.514282
32.43 487.171204
32.44 488.012512
32.45 491.303162
32.46 491.401642
32.47 490.255402
32.48 489.735474
32.49 492.357025
32.50 497.053894
32.51 502.964203
32.52 501.35611
32.53 495.925293
32.54 488.624207
32.55 479.870422
32.56 473.839905
32.57 475.508911
32.58 479.549469
32.59 482.969574
32.60 480.67688
32.61 482.962372
32.62 488.09671
32.63 489.196259
32.64 491.658142
32.65 493.428009
32.66 495.35318
32.67 494.96582
32.68 490.367493
32.69 481.143463
32.70 475.64093
32.71 478.137695
32.72 485.598846
32.73 486.91925
32.74 489.734558
32.75 495.289825
32.76 492.595428
32.77 483.731018
32.78 486.868164
32.79 485.830048
32.80 483.194275
32.81 482.516876
32.82 484.506958
32.83 482.839813
32.84 480.989563
32.85 476.959595
32.86 468.624756
32.87 466.584015
32.88 467.408997
32.89 467.032379
32.90 469.247589
32.91 469.443756
32.92 470.717957
32.93 472.351929
32.94 480.364349
32.95 483.844147
32.96 479.215332
32.97 474.087036
32.98 471.722321
32.99 468.12326
33.00 470.076691
33.01 475.111359
33.02 480.64444
33.03 483.470703
33.04 487.267731
33.05 483.624023
33.06 483.330353
33.07 484.44516
33.08 476.906647
33.09 478.225403
33.10 484.506958
33.11 486.365417
33.12 482.757782
33.13 477.748291
33.14 480.687164
33.15 477.945099
33.16 470.345306
33.17 472.325989
33.18 476.458466
33.19 475.457245
33.20 472.35556
33.21 471.636749
33.22 474.548218
33.23 475.609772
33.24 476.840546
33.25 472.594177
33.26 471.638458
33.27 476.150879
33.28 480.908539
33.29 480.376678
33.30 475.805054
33.31 472.666046
33.32 469.980469
33.33 468.940125
33.34 467.717133
33.35 464.889954
33.36 465.50116
33.37 463.01828
33.38 462.97998
33.39 467.68396
33.40 464.676575
33.41 460.425476
33.42 463.649109
33.43 469.17926
33.44 470.245087
33.45 467.561096
33.46 465.043304
33.47 465.227692
33.48 467.957733
33.49 469.299683
33.50 467.6633
33.51 466.021576
33.52 465.630524
33.53 466.933899
33.54 462.091156
33.55 454.072693
33.56 451.947357
33.57 462.665283
33.58 466.591248
33.59 462.768066
33.60 463.403259
33.61 465.406342
33.62 465.156525
33.63 473.233276
33.64 479.753143
33.65 471.179199
33.66 464.779572
33.67 463.341461
33.68 458.243866
33.69 458.489471
33.70 458.212494
33.71 452.746704
33.72 454.413483
33.73 464.594757
33.74 463.04071
33.75 463.958923
33.76 467.021423
33.77 460.055115
33.78 450.561462
33.79 448.601074
33.80 451.720428
33.81 449.562622
33.82 450.393829
33.83 452.80011
33.84 452.052399
33.85 448.143677
33.86 445.765686
33.87 448.008881
33.88 446.345062
33.89 442.992401
33.90 441.039459
33.91 444.161133
33.92 452.607513
33.93 455.661072
33.94 455.233124
33.95 457.844147
33.96 455.932831
33.97 453.12088
33.98 454.442871
33.99 453.57431
34.00 448.537567
34.01 442.376678
34.02 442.10144
34.03 442.857178
34.04 437.535797
34.05 442.247986
34.06 447.918854
34.07 449.92099
34.08 452.019592
34.09 451.304413
34.10 453.942383
34.11 458.686737
34.12 462.668976
34.13 460.380035
34.14 455.987061
34.15 452.055389
34.16 444.890656
34.17 444.261139
34.18 447.133759
34.19 441.779266
34.20 439.058563
34.21 444.349487
34.22 447.950165
34.23 448.753174
34.24 446.482788
34.25 443.377411
34.26 441.043945
34.27 441.886993
34.28 448.115845
34.29 453.137787
34.30 448.276215
34.31 447.972626
34.32 453.832245
34.33 452.560089
34.34 448.549347
34.35 449.97702
34.36 455.216156
34.37 455.264069
34.38 459.683655
34.39 462.392639
34.40 461.725861
34.41 462.44281
34.42 464.875458
34.43 461.172729
34.44 458.891022
34.45 459.400238
34.46 452.369995
34.47 450.211487
34.48 453.401123
34.49 453.425659
34.50 447.809906
34.51 452.136658
34.52 456.648956
34.53 457.797485
34.54 461.139435
34.55 459.379761
34.56 456.602509
34.57 454.304382
34.58 454.63327
34.59 460.947601
34.60 467.653656
34.61 466.743073
34.62 462.98172
34.63 466.794952
34.64 473.002106
34.65 469.788849
34.66 462.445435
34.67 464.183624
34.68 467.963165
34.69 471.57785
34.70 477.25058
34.71 478.750244
34.72 478.806732
34.73 482.132629
34.74 476.56778
34.75 475.345032
34.76 484.087982
34.77 480.984253
34.78 478.843689
34.79 485.100433
34.80 484.540619
34.81 485.928528
34.82 489.811066
34.83 491.681061
34.84 488.196777
34.85 485.003235
34.86 489.518188
34.87 495.02951
34.88 495.570709
34.89 491.841248
34.90 486.299286
34.91 487.394806
34.92 485.414948
34.93 486.343231
34.94 486.8591
34.95 485.166168
34.96 488.551666
34.97 491.464355
34.98 490.862274
34.99 492.889038
35.00 486.947235
35.01 474.812714
35.02 476.355347
35.03 488.299835
35.04 491.623718
35.05 487.948822
35.06 486.293152
35.07 482.341736
35.08 472.471619
35.09 468.659851
35.10 464.857025
35.11 463.267334
35.12 465.988739
35.13 464.773468
35.14 461.515625
35.15 460.427948
35.16 460.290588
35.17 456.377228
35.18 449.709839
35.19 449.187714
35.20 448.001617
35.21 449.161621
35.22 450.974792
35.23 442.821777
35.24 442.650146
35.25 448.041809
35.26 448.316254
35.27 445.973938
35.28 441.321716
35.29 437.519165
35.30 430.89328
35.31 430.943512
35.32 427.89563
35.33 429.435089
35.34 435.440582
35.35 434.46582
35.36 430.721222
35.37 432.444458
35.38 424.810974
35.39 418.165375
35.40 419.339355
35.41 414.232208
35.42 413.322357
35.43 416.553619
35.44 414.854065
35.45 419.139801
35.46 416.844788
35.47 411.528351
35.48 413.31134
35.49 410.443665
35.50 404.806488
35.51 404.438538
35.52 403.61554
35.53 401.253082
35.54 401.622253
35.55 405.750458
35.56 409.00296
35.57 410.245087
35.58 400.983917
35.59 394.355347
35.60 400.445679
35.61 404.461334
35.62 399.93573
35.63 397.348816
35.64 396.699005
35.65 396.758575
35.66 399.022095
35.67 399.503937
35.68 398.139496
35.69 399.276733
35.70 403.93924
35.71 406.563171
35.72 400.64563
35.73 394.366028
35.74 396.10144
35.75 394.80188
35.76 389.421265
35.77 389.851166
35.78 392.282288
35.79 390.956299
35.80 392.684845
35.81 396.029877
35.82 392.725861
35.83 390.470612
35.84 392.717773
35.85 397.137878
35.86 395.579315
35.87 393.646667
35.88 393.028717
35.89 393.556976
35.90 393.461884
35.91 388.193939
35.92 383.958923
35.93 383.892578
35.94 386.384674
35.95 383.212677
35.96 380.133423
35.97 374.988068
35.98 373.537811
35.99 379.220856
36.00 377.499969
36.01 374.130585
36.02 379.877594
36.03 383.30249
36.04 383.884827
36.05 382.888
36.06 375.533173
36.07 371.590607
36.08 374.029205
36.09 375.706848
36.10 380.665955
36.11 387.922516
36.12 383.927612
36.13 382.773041
36.14 378.825195
36.15 377.64389
36.16 387.220612
36.17 385.224335
36.18 377.89032
36.19 375.08963
36.20 371.154785
36.21 372.469086
36.22 375.966339
36.23 371.545624
36.24 368.070068
36.25 366.396454
36.26 365.51886
36.27 367.301575
36.28 368.004242
36.29 365.714691
36.30 370.465515
36.31 372.121765
36.32 371.581177
36.33 370.965729
36.34 369.548065
36.35 371.946106
36.36 373.623291
36.37 371.681152
36.38 367.74585
36.39 372.933685
36.40 373.893066
36.41 373.689178
36.42 370.343353
36.43 362.543182
36.44 360.286163
36.45 362.202148
36.46 363.608917
36.47 367.345154
36.48 372.765503
36.49 375.75946
36.50 373.78009
36.51 367.298035
36.52 360.279083
36.53 359.343689
36.54 367.065369
36.55 368.264008
36.56 365.343628
36.57 362.27887
36.58 366.129028
36.59 369.076019
36.60 364.288269
36.61 361.696289
36.62 357.621765
36.63 360.903778
36.64 369.985199
36.65 368.686798
36.66 368.231628
36.67 375.149414
36.68 375.1651
36.69 367.635162
36.70 367.682373
36.71 369.470276
36.72 363.191711
36.73 357.513977
36.74 356.411652
36.75 358.847778
36.76 356.359863
36.77 354.919891
36.78 357.093109
36.79 356.600464
36.80 354.405121
36.81 348.206757
36.82 348.781372
36.83 352.866821
36.84 350.659149
36.85 353.634888
36.86 356.680084
36.87 354.780518
36.88 355.307617
36.89 355.537018
36.90 350.764526
36.91 343.60321
36.92 343.406403
36.93 349.006134
36.94 355.167664
36.95 356.872955
36.96 356.640839
36.97 355.659302
36.98 355.388336
36.99 351.863617
37.00 347.946259
37.01 347.233795
37.02 345.740509
37.03 348.134247
37.04 347.035828
37.05 346.382141
37.06 346.494568
37.07 348.302094
37.08 349.173401
37.09 344.290558
37.10 342.391846
37.11 340.926605
37.12 339.228912
37.13 344.288757
37.14 345.023529
37.15 341.769531
37.16 341.15802
37.17 344.112823
37.18 349.874359
37.19 349.892731
37.20 345.726898
37.21 343.17157
37.22 347.563019
37.23 346.988495
37.24 341.911285
37.25 343.090027
37.26 347.326294
37.27 345.436859
37.28 345.451599
37.29 348.595032
37.30 350.413635
37.31 348.672241
37.32 345.545258
37.33 341.755402
37.34 336.930145
37.35 338.04422
37.36 338.559418
37.37 337.084564
37.38 337.809967
37.39 339.44223
37.40 337.50708
37.41 337.537994
37.42 343.492096
37.43 349.787903
37.44 350.079987
37.45 348.070679
37.46 349.169983
37.47 349.655243
37.48 346.986511
37.49 338.976166
37.50 333.172943
37.51 336.291443
37.52 341.720276
37.53 344.994415
37.54 344.827637
37.55 339.350067
37.56 340.477875
37.57 339.793671
37.58 334.905304
37.59 334.887939
37.60 340.595947
37.61 339.591248
37.62 333.151886
37.63 331.932678
37.64 336.209717
37.65 339.335052
37.66 335.292328
37.67 329.766327
37.68 324.740631
37.69 323.054108
37.70 328.109985
37.71 331.901276
37.72 334.059296
37.73 336.240631
37.74 338.7117
37.75 335.791504
37.76 333.638794
37.77 337.91745
37.78 338.045685
37.79 336.69278
37.80 338.42572
37.81 332.976715
37.82 329.429749
37.83 334.508759
37.84 341.635223
37.85 343.239197
37.86 336.906982
37.87 333.976715
37.88 335.918457
37.89 336.567444
37.90 338.687744
37.91 338.401154
37.92 339.885803
37.93 340.934784
37.94 338.338745
37.95 338.47757
37.96 340.383331
37.97 336.401764
37.98 335.217285
37.99 338.828003
38.00 336.950439
38.01 334.505341
38.02 335.084778
38.03 333.112671
38.04 333.170807
38.05 338.931122
38.06 339.688904
38.07 337.357086
38.08 337.586578
38.09 335.510803
38.10 333.957153
38.11 336.008087
38.12 336.409698
38.13 333.100372
38.14 333.553558
38.15 332.395935
38.16 330.707642
38.17 335.786713
38.18 335.88266
38.19 335.852631
38.20 333.331635
38.21 331.569031
38.22 334.66803
38.23 335.782745
38.24 336.652832
38.25 332.621552
38.26 327.71225
38.27 327.314423
38.28 332.90564
38.29 337.349548
38.30 337.631134
38.31 334.118958
38.32 333.734009
38.33 336.717407
38.34 333.160492
38.35 336.246063
38.36 346.13147
38.37 352.498505
38.38 348.884125
38.39 338.639893
38.40 333.252197
38.41 334.267578
38.42 338.358948
38.43 339.585358
38.44 336.451935
38.45 331.69339
38.46 329.900482
38.47 331.43222
38.48 336.773621
38.49 335.857086
38.50 332.507751
38.51 331.602753
38.52 332.867615
38.53 331.264465
38.54 335.940552
38.55 336.068939
38.56 332.935181
38.57 334.518677
38.58 333.898651
38.59 333.329987
38.60 331.428864
38.61 330.294403
38.62 334.63501
38.63 331.648224
38.64 326.151855
38.65 322.974182
38.66 320.645325
38.67 324.32959
38.68 325.074677
38.69 331.577179
38.70 335.525391
38.71 329.743164
38.72 323.138214
38.73 319.200378
38.74 321.258057
38.75 319.374146
38.76 316.32431
38.77 314.16568
38.78 315.972687
38.79 321.169189
38.80 324.042023
38.81 324.026306
38.82 324.226624
38.83 322.206177
38.84 324.370453
38.85 327.809998
38.86 323.53302
38.87 318.387634
38.88 320.065826
38.89 324.688904
38.90 327.178772
38.91 326.520966
38.92 320.49765
38.93 318.382324
38.94 317.689972
38.95 317.31015
38.96 320.085419
38.97 313.554657
38.98 307.587616
38.99 309.493652
39.00 314.647308
39.01 325.313385
39.02 328.392456
39.03 319.920532
39.04 320.307892
39.05 323.634399
39.06 318.719635
39.07 320.473724
39.08 319.846985
39.09 316.673431
39.10 321.432495
39.11 324.430847
39.12 320.082458
39.13 315.958496
39.14 317.09079
39.15 315.42691
39.16 310.674622
39.17 308.327972
39.18 308.15213
39.19 307.100159
39.20 306.470825
39.21 310.659149
39.22 316.836243
39.23 317.887085
39.24 315.515839
39.25 312.414734
39.26 310.368622
39.27 309.168701
39.28 309.485718
39.29 312.46933
39.30 315.335938
39.31 317.087524
39.32 318.829651
39.33 316.460114
39.34 314.225433
39.35 317.02597
39.36 319.329163
39.37 319.045776
39.38 319.76001
39.39 320.999084
39.40 320.412994
39.41 320.282318
39.42 317.849945
39.43 314.190857
39.44 312.965668
39.45 314.620361
39.46 315.416229
39.47 318.454559
39.48 322.362671
39.49 320.800323
39.50 314.533325
39.51 309.300232
39.52 305.836487
39.53 307.315704
39.54 305.452393
39.55 306.26474
39.56 313.414276
39.57 314.669006
39.58 312.933441
39.59 307.710388
39.60 305.837158
39.61 309.053558
39.62 308.911957
39.63 305.87262
39.64 310.04184
39.65 313.516083
39.66 306.560577
39.67 306.207794
39.68 305.701324
39.69 302.775757
39.70 306.673279
39.71 310.345367
39.72 313.337921
39.73 316.510681
39.74 315.331146
39.75 315.572021
39.76 313.605438
39.77 308.125641
39.78 310.01474
39.79 316.040009
39.80 314.066162
39.81 311.006042
39.82 307.868469
39.83 307.687653
39.84 308.130676
39.85 305.107971
39.86 302.790649
39.87 300.40564
39.88 299.828705
39.89 300.930573
39.90 304.955841
39.91 309.09668
39.92 310.51236
39.93 311.015961
39.94 311.187012
39.95 310.982758
39.96 306.185547
39.97 303.832947
39.98 308.514954
39.99 313.443268
40.00 316.25293
40.01 314.063843
40.02 313.970825
40.03 313.299347
40.04 311.973206
40.05 310.783936
40.06 304.841278
40.07 303.820679
40.08 310.358673
40.09 311.456238
40.10 312.342834
40.11 314.595703
40.12 310.702911
40.13 313.177582
40.14 314.62793
40.15 316.243652
40.16 312.51889
40.17 308.956329
40.18 309.389343
40.19 307.807068
40.20 309.067535
40.21 311.807709
40.22 317.730988
40.23 321.278137
40.24 315.477051
40.25 314.945313
40.26 316.90564
40.27 311.045532
40.28 306.449402
40.29 301.28775
40.30 299.284485
40.31 300.931366
40.32 301.341583
40.33 307.028809
40.34 309.11264
40.35 306.711578
40.36 309.728729
40.37 315.488281
40.38 315.2854
40.39 314.528503
40.40 314.66507
40.41 312.51535
40.42 312.038696
40.43 309.089874
40.44 307.528351
40.45 305.730347
40.46 303.271698
40.47 309.27533
40.48 309.797211
40.49 307.823761
40.50 312.341492
40.51 313.178131
40.52 310.501862
40.53 308.411224
40.54 306.041077
40.55 303.648926
40.56 301.122284
40.57 301.410248
40.58 308.853546
40.59 312.029297
40.60 312.572144
40.61 313.31543
40.62 310.949036
40.63 307.622345
40.64 306.723755
40.65 309.320313
40.66 306.703918
40.67 301.900757
40.68 303.146698
40.69 307.459778
40.70 314.078674
40.71 311.649841
40.72 304.119537
40.73 305.843536
40.74 309.619598
40.75 312.863525
40.76 308.622375
40.77 300.107056
40.78 300.979645
40.79 296.666412
40.80 295.267456
40.81 302.853912
40.82 305.007355
40.83 303.249817
40.84 303.934662
40.85 302.360199
40.86 300.082001
40.87 305.835144
40.88 309.144348
40.89 306.83313
40.90 303.755432
40.91 301.118896
40.92 300.127563
40.93 300.747742
40.94 298.575592
40.95 301.056915
40.96 306.926941
40.97 301.267944
40.98 297.163879
40.99 303.782043
41.00 309.672424
41.01 314.248383
41.02 314.663361
41.03 311.966064
41.04 313.771271
41.05 310.418335
41.06 302.752106
41.07 299.296509
41.08 301.768768
41.09 304.97229
41.10 305.404236
