!@!!GADDS PLOTSO FILE: Chi integration type
!@!!Title/SampleName: ML_MAPbX3_chem16
!@!!User: NREL
!@!!Site: NREL SERF C211; SN 2510
!@!!Frame: 081922_ML_MAPbX3_chem16_000_000.gfrm
!@!!Wavelengths    1.54184   1.54056   1.54439
!@!!Frame angles: 2Theta: 28.000 Omega: 5.000 Phi: 0.000 Chi: 90.000
!@!!Integration range: 2Theta: 9.100 to 40.800  Gamma: -121.900 to -57.900
!@!!Integration method: bin normalized
!@!N
!@!SS
!@!M
!@!L 0.0 0.0 0.0 0.0
!@!XDegrees
!@!YCounts
9.10 216.976456
9.11 212.947601
9.12 205.271332
9.13 209.610565
9.14 222.913864
9.15 225.586487
9.16 218.97197
9.17 209.142014
9.18 211.548218
9.19 216.355301
9.20 218.081665
9.21 219.230423
9.22 218.9944
9.23 222.410919
9.24 223.67099
9.25 224.003723
9.26 230.515717
9.27 237.77562
9.28 229.06395
9.29 224.588547
9.30 223.961563
9.31 225.122284
9.32 228.665619
9.33 226.749741
9.34 232.91806
9.35 234.69136
9.36 231.797607
9.37 231.575272
9.38 224.61348
9.39 215.768387
9.40 216.368439
9.41 219.936768
9.42 219.997513
9.43 217.426468
9.44 211.084396
9.45 207.513458
9.46 214.16246
9.47 223.367126
9.48 217.832016
9.49 211.45993
9.50 217.224945
9.51 224.232864
9.52 226.967255
9.53 226.913376
9.54 221.769501
9.55 220.144958
9.56 222.499847
9.57 220.68483
9.58 223.745087
9.59 226.265411
9.60 227.394348
9.61 230.678558
9.62 237.631622
9.63 240.333923
9.64 231.021729
9.65 231.768738
9.66 243.070404
9.67 242.740906
9.68 233.677811
9.69 224.285629
9.70 224.233841
9.71 223.058762
9.72 216.817902
9.73 225.027802
9.74 225.790283
9.75 224.170303
9.76 231.294235
9.77 234.942673
9.78 232.244751
9.79 230.403656
9.80 228.555084
9.81 232.164154
9.82 232.81369
9.83 230.180023
9.84 235.457687
9.85 235.119522
9.86 229.17955
9.87 227.577484
9.88 232.709335
9.89 237.917709
9.90 237.108856
9.91 227.773468
9.92 228.267181
9.93 226.450653
9.94 225.67128
9.95 231.017258
9.96 232.63591
9.97 236.135529
9.98 229.832535
9.99 230.464355
10.00 231.293854
10.01 227.4888
10.02 226.632706
10.03 225.735291
10.04 232.350098
10.05 225.225021
10.06 211.496002
10.07 223.635239
10.08 237.88147
10.09 233.656342
10.10 232.560226
10.11 234.912201
10.12 229.30249
10.13 235.227356
10.14 235.348358
10.15 228.801422
10.16 234.686142
10.17 234.740479
10.18 240.211624
10.19 239.816589
10.20 235.28717
10.21 242.695755
10.22 236.852158
10.23 232.18605
10.24 242.586823
10.25 239.719131
10.26 234.088165
10.27 241.023804
10.28 235.658936
10.29 229.639832
10.30 234.515564
10.31 237.761749
10.32 235.142303
10.33 238.187805
10.34 244.429596
10.35 235.690613
10.36 235.542175
10.37 240.091049
10.38 245.680099
10.39 243.64859
10.40 240.8246
10.41 240.923233
10.42 234.362396
10.43 237.696381
10.44 243.209946
10.45 245.779938
10.46 232.835571
10.47 224.186493
10.48 236.967133
10.49 241.901825
10.50 245.119263
10.51 244.383606
10.52 232.899338
10.53 237.076233
10.54 242.769043
10.55 239.853134
10.56 243.063858
10.57 242.049652
10.58 241.471237
10.59 242.46759
10.60 241.586823
10.61 238.252533
10.62 236.062592
10.63 242.188171
10.64 248.578964
10.65 240.973267
10.66 244.20517
10.67 253.560867
10.68 256.712097
10.69 256.036957
10.70 248.382126
10.71 238.911179
10.72 233.106628
10.73 234.67215
10.74 238.345047
10.75 240.887878
10.76 246.226074
10.77 251.770142
10.78 249.083389
10.79 246.676956
10.80 248.500046
10.81 250.253143
10.82 247.082199
10.83 240.840073
10.84 239.399765
10.85 242.851929
10.86 247.254868
10.87 249.754807
10.88 252.855377
10.89 255.56842
10.90 258.331848
10.91 260.157501
10.92 257.720459
10.93 250.368866
10.94 249.81636
10.95 249.492584
10.96 254.089386
10.97 267.153137
10.98 263.623779
10.99 260.54715
11.00 262.873444
11.01 264.012085
11.02 263.288086
11.03 253.947235
11.04 248.706329
11.05 251.551636
11.06 257.258728
11.07 260.1091
11.08 258.721924
11.09 258.610718
11.10 256.724426
11.11 252.091537
11.12 253.936722
11.13 251.543198
11.14 254.92337
11.15 261.125793
11.16 252.796448
11.17 248.974945
11.18 251.157837
11.19 253.046158
11.20 252.437119
11.21 249.279663
11.22 250.21315
11.23 255.717422
11.24 253.923538
11.25 253.051956
11.26 256.518066
11.27 256.143402
11.28 257.016266
11.29 263.17804
11.30 262.7276
11.31 260.526398
11.32 259.604309
11.33 250.699554
11.34 250.374939
11.35 257.80484
11.36 261.802399
11.37 261.188568
11.38 262.274963
11.39 258.227966
11.40 257.682526
11.41 259.004333
11.42 261.414551
11.43 259.568268
11.44 257.397919
11.45 260.931213
11.46 258.475464
11.47 259.964905
11.48 259.660583
11.49 259.161957
11.50 265.95813
11.51 257.764465
11.52 253.073532
11.53 258.666199
11.54 252.669952
11.55 259.324097
11.56 263.167084
11.57 262.6474
11.58 269.145782
11.59 263.647339
11.60 266.910614
11.61 276.668945
11.62 276.485413
11.63 274.523224
11.64 268.374176
11.65 265.453552
11.66 271.111969
11.67 272.027557
11.68 267.909241
11.69 266.094666
11.70 271.565094
11.71 277.932526
11.72 275.024658
11.73 268.506317
11.74 272.441559
11.75 272.91037
11.76 267.464752
11.77 261.040344
11.78 258.971771
11.79 264.007263
11.80 269.524994
11.81 275.594635
11.82 279.04776
11.83 278.959656
11.84 276.02832
11.85 275.8508
11.86 272.580872
11.87 275.937469
11.88 286.46283
11.89 284.272858
11.90 286.995911
11.91 289.606079
11.92 281.164246
11.93 278.32428
11.94 283.990509
11.95 284.429382
11.96 281.63208
11.97 283.366364
11.98 290.271667
11.99 292.113525
12.00 292.172394
12.01 296.251709
12.02 293.010834
12.03 287.61441
12.04 286.443909
12.05 286.453125
12.06 286.853333
12.07 281.514221
12.08 283.781158
12.09 294.946167
12.10 297.013702
12.11 294.373566
12.12 293.967804
12.13 298.654999
12.14 296.858917
12.15 297.30542
12.16 299.207123
12.17 291.821625
12.18 292.999664
12.19 296.100616
12.20 304.811615
12.21 308.675537
12.22 303.846527
12.23 303.884766
12.24 299.304016
12.25 301.019196
12.26 307.17337
12.27 313.335602
12.28 321.119812
12.29 330.776215
12.30 335.671417
12.31 331.642059
12.32 324.293884
12.33 324.1633
12.34 325.896942
12.35 337.839508
12.36 341.66449
12.37 341.775635
12.38 345.535736
12.39 346.31488
12.40 350.008545
12.41 355.939545
12.42 361.744293
12.43 362.829773
12.44 365.291718
12.45 360.868073
12.46 358.142212
12.47 364.620667
12.48 370.794312
12.49 381.147949
12.50 383.790894
12.51 369.332336
12.52 364.901031
12.53 370.007324
12.54 373.722992
12.55 376.571869
12.56 381.477173
12.57 380.274475
12.58 378.884552
12.59 377.440613
12.60 365.365387
12.61 371.544708
12.62 384.047241
12.63 391.573151
12.64 404.070404
12.65 401.832703
12.66 393.590881
12.67 383.318939
12.68 382.755402
12.69 383.561707
12.70 376.061188
12.71 372.216461
12.72 375.753601
12.73 368.949036
12.74 355.66333
12.75 353.406342
12.76 352.294037
12.77 349.766022
12.78 345.443512
12.79 334.594391
12.80 334.740784
12.81 338.528778
12.82 335.31073
12.83 336.430267
12.84 330.835266
12.85 325.337799
12.86 326.238373
12.87 335.868011
12.88 341.011017
12.89 331.065033
12.90 322.560028
12.91 318.460236
12.92 314.419739
12.93 313.043976
12.94 317.787872
12.95 322.375244
12.96 314.924744
12.97 306.507385
12.98 307.76593
12.99 310.359894
13.00 312.360107
13.01 307.061371
13.02 307.596771
13.03 311.198395
13.04 310.235901
13.05 314.073242
13.06 309.509888
13.07 302.029541
13.08 303.50589
13.09 305.370544
13.10 301.702209
13.11 304.761688
13.12 304.051758
13.13 299.368347
13.14 302.745056
13.15 302.250671
13.16 303.414429
13.17 301.900085
13.18 302.378662
13.19 303.265869
13.20 308.088013
13.21 305.955414
13.22 302.141632
13.23 304.559509
13.24 300.980072
13.25 295.98468
13.26 295.560486
13.27 298.824127
13.28 295.844269
13.29 291.45108
13.30 293.515167
13.31 292.74115
13.32 297.209412
13.33 305.699097
13.34 308.894196
13.35 303.902435
13.36 295.699677
13.37 294.456543
13.38 295.351654
13.39 291.048431
13.40 287.333496
13.41 287.632996
13.42 284.724487
13.43 287.987396
13.44 302.76123
13.45 308.353455
13.46 314.378784
13.47 316.567108
13.48 308.425171
13.49 305.250031
13.50 306.92569
13.51 309.528748
13.52 304.505432
13.53 301.810242
13.54 303.161682
13.55 302.948822
13.56 304.482544
13.57 299.022217
13.58 297.348602
13.59 309.54776
13.60 322.099457
13.61 313.820831
13.62 300.819031
13.63 303.484131
13.64 309.451385
13.65 311.598267
13.66 317.541443
13.67 323.292175
13.68 319.403656
13.69 319.872894
13.70 312.101532
13.71 307.780304
13.72 314.458893
13.73 307.191162
13.74 295.3862
13.75 292.309052
13.76 291.929199
13.77 303.040375
13.78 306.31015
13.79 308.626068
13.80 318.325684
13.81 323.654572
13.82 323.947998
13.83 317.887878
13.84 322.339233
13.85 319.275116
13.86 316.423981
13.87 324.045898
13.88 324.816437
13.89 329.310455
13.90 328.71756
13.91 324.129883
13.92 318.429626
13.93 319.690338
13.94 326.203674
13.95 328.305786
13.96 332.420349
13.97 339.044189
13.98 342.868774
13.99 336.99292
14.00 326.49176
14.01 324.274139
14.02 331.977234
14.03 335.850281
14.04 335.87561
14.05 334.079834
14.06 331.715088
14.07 325.327972
14.08 329.640747
14.09 337.601166
14.10 340.115845
14.11 339.873291
14.12 332.922394
14.13 325.291962
14.14 321.131104
14.15 322.648773
14.16 336.685516
14.17 346.910431
14.18 344.66275
14.19 340.95694
14.20 338.528748
14.21 340.363647
14.22 343.942169
14.23 346.762878
14.24 347.162964
14.25 336.665253
14.26 330.414307
14.27 325.627563
14.28 328.904572
14.29 335.290161
14.30 329.644836
14.31 331.59317
14.32 329.591888
14.33 323.224426
14.34 326.42868
14.35 324.521362
14.36 321.865051
14.37 328.172821
14.38 329.444366
14.39 330.772644
14.40 335.629547
14.41 339.866577
14.42 342.091919
14.43 334.635468
14.44 324.764954
14.45 316.622437
14.46 315.00769
14.47 317.283966
14.48 324.615479
14.49 330.24469
14.50 328.681122
14.51 333.984283
14.52 334.368774
14.53 327.814819
14.54 330.933563
14.55 335.202637
14.56 333.111298
14.57 332.888367
14.58 337.593842
14.59 338.41394
14.60 338.194122
14.61 332.795074
14.62 326.125092
14.63 327.94165
14.64 330.218567
14.65 334.153168
14.66 347.126465
14.67 349.56369
14.68 342.411835
14.69 343.077942
14.70 348.509979
14.71 353.818939
14.72 354.972626
14.73 353.319458
14.74 355.685059
14.75 357.372345
14.76 358.133057
14.77 353.780273
14.78 359.939545
14.79 365.658051
14.80 365.770569
14.81 372.883331
14.82 371.15741
14.83 373.889191
14.84 379.024109
14.85 382.815979
14.86 387.06601
14.87 394.871552
14.88 400.136749
14.89 417.275146
14.90 417.178345
14.91 401.985046
14.92 402.14209
14.93 416.169342
14.94 425.786957
14.95 426.833893
14.96 433.393066
14.97 445.748108
14.98 452.661652
14.99 456.333984
15.00 471.107422
15.01 481.936493
15.02 491.980042
15.03 479.163361
15.04 478.721588
15.05 492.946899
15.06 510.410858
15.07 528.085815
15.08 544.912415
15.09 556.294922
15.10 563.634949
15.11 565.771362
15.12 575.213379
15.13 593.635864
15.14 607.445129
15.15 627.648315
15.16 637.303589
15.17 656.662231
15.18 674.244446
15.19 676.014893
15.20 673.818176
15.21 700.262207
15.22 722.402649
15.23 750.025085
15.24 766.771057
15.25 793.702026
15.26 805.00293
15.27 820.458862
15.28 861.305847
15.29 882.5
15.30 889.681335
15.31 908.071228
15.32 940.517883
15.33 948.72699
15.34 958.118286
15.35 954.487122
15.36 960.937622
15.37 964.470947
15.38 982.757202
15.39 989.250854
15.40 981.280823
15.41 986.083313
15.42 994.450317
15.43 1002.325134
15.44 989.322998
15.45 964.369812
15.46 949.721802
15.47 935.971008
15.48 920.518066
15.49 904.384277
15.50 887.84375
15.51 852.635925
15.52 832.085144
15.53 778.078369
15.54 754.788269
15.55 737.323608
15.56 721.88739
15.57 708.067322
15.58 696.952576
15.59 662.763733
15.60 628.87616
15.61 608.552673
15.62 591.292603
15.63 581.340332
15.64 562.041626
15.65 553.527161
15.66 535.609619
15.67 526.595581
15.68 513.250061
15.69 508.647339
15.70 496.529175
15.71 481.94342
15.72 484.082733
15.73 480.744934
15.74 463.376129
15.75 449.839203
15.76 442.546509
15.77 443.32843
15.78 440.440735
15.79 431.958466
15.80 438.123169
15.81 428.659454
15.82 419.88678
15.83 419.415039
15.84 415.57959
15.85 410.628143
15.86 408.393433
15.87 414.779266
15.88 415.641724
15.89 413.241913
15.90 410.202148
15.91 398.093079
15.92 384.806854
15.93 378.607788
15.94 380.960754
15.95 381.28775
15.96 381.365265
15.97 387.728271
15.98 389.564331
15.99 381.442719
16.00 374.756989
16.01 372.825378
16.02 374.55835
16.03 378.376648
16.04 383.786041
16.05 394.243347
16.06 390.287811
16.07 378.968964
16.08 370.027649
16.09 363.172272
16.10 362.312958
16.11 362.538605
16.12 364.339325
16.13 363.8815
16.14 363.807098
16.15 366.440033
16.16 366.865936
16.17 359.819
16.18 354.488495
16.19 353.500763
16.20 356.396515
16.21 361.860168
16.22 359.683868
16.23 358.620911
16.24 358.796295
16.25 363.554321
16.26 362.444092
16.27 353.639221
16.28 350.807373
16.29 352.517242
16.30 357.33783
16.31 364.018433
16.32 361.850708
16.33 358.744293
16.34 357.840271
16.35 355.425568
16.36 356.739746
16.37 358.700073
16.38 360.729095
16.39 357.39267
16.40 354.854187
16.41 352.061615
16.42 347.466034
16.43 348.137207
16.44 348.201996
16.45 349.34256
16.46 352.445251
16.47 349.0336
16.48 351.44989
16.49 358.733093
16.50 355.804382
16.51 352.1073
16.52 362.820648
16.53 364.732422
16.54 354.724335
16.55 354.073059
16.56 354.554596
16.57 352.463104
16.58 351.305725
16.59 351.205841
16.60 346.693512
16.61 347.936432
16.62 356.740234
16.63 359.162872
16.64 354.7052
16.65 351.952576
16.66 353.00412
16.67 351.049713
16.68 349.687439
16.69 354.933777
16.70 356.05249
16.71 348.54483
16.72 347.333771
16.73 347.995117
16.74 345.075653
16.75 347.432129
16.76 350.210846
16.77 343.521973
16.78 344.711853
16.79 347.569305
16.80 347.064941
16.81 348.336334
16.82 350.05365
16.83 351.836029
16.84 348.065186
16.85 351.934723
16.86 359.01889
16.87 360.148438
16.88 358.028351
16.89 356.254181
16.90 342.522858
16.91 337.134827
16.92 345.941742
16.93 349.291595
16.94 347.762512
16.95 348.123108
16.96 348.697327
16.97 348.96579
16.98 350.796387
16.99 361.605377
17.00 367.006287
17.01 359.827393
17.02 355.516724
17.03 350.453247
17.04 348.424164
17.05 349.635559
17.06 357.933807
17.07 364.287964
17.08 367.283752
17.09 369.174377
17.10 365.226227
17.11 360.704803
17.12 357.783417
17.13 361.976807
17.14 363.767456
17.15 358.770691
17.16 352.053864
17.17 353.083771
17.18 360.137268
17.19 360.816772
17.20 362.685303
17.21 366.093567
17.22 359.227539
17.23 356.304535
17.24 355.666809
17.25 350.507111
17.26 353.61377
17.27 360.809875
17.28 355.778473
17.29 353.84198
17.30 359.246521
17.31 359.203278
17.32 353.882233
17.33 352.468597
17.34 357.552643
17.35 358.32666
17.36 360.739227
17.37 364.03183
17.38 365.466553
17.39 366.157104
17.40 357.65686
17.41 355.374451
17.42 353.817139
17.43 356.817169
17.44 368.362976
17.45 369.692261
17.46 368.216553
17.47 374.218903
17.48 376.992462
17.49 371.045593
17.50 373.203827
17.51 377.70816
17.52 372.577911
17.53 380.629059
17.54 388.697113
17.55 386.067017
17.56 385.363037
17.57 380.582581
17.58 379.891144
17.59 385.150421
17.60 383.932556
17.61 376.660767
17.62 378.796936
17.63 380.821289
17.64 370.048309
17.65 365.109406
17.66 373.356476
17.67 377.828308
17.68 379.14035
17.69 381.840912
17.70 382.751465
17.71 376.147003
17.72 368.675995
17.73 370.418945
17.74 383.471558
17.75 390.964233
17.76 396.190979
17.77 397.34671
17.78 388.897095
17.79 379.308777
17.80 374.358612
17.81 372.612732
17.82 366.155853
17.83 371.173553
17.84 381.515625
17.85 380.243011
17.86 380.598999
17.87 383.639984
17.88 387.579315
17.89 384.421021
17.90 377.101318
17.91 376.250092
17.92 377.284149
17.93 384.797699
17.94 390.436096
17.95 388.736633
17.96 393.668579
17.97 393.355835
17.98 393.290497
17.99 397.56134
18.00 399.211395
18.01 400.192078
18.02 395.954529
18.03 387.0495
18.04 377.998688
18.05 375.22171
18.06 377.843719
18.07 384.475861
18.08 390.722076
18.09 392.343048
18.10 388.834656
18.11 387.048401
18.12 385.685699
18.13 383.439117
18.14 383.14566
18.15 385.025543
18.16 395.425995
18.17 397.262787
18.18 390.129761
18.19 385.730194
18.20 389.027893
18.21 393.854065
18.22 397.000885
18.23 400.93631
18.24 406.61853
18.25 408.394867
18.26 407.755371
18.27 404.437439
18.28 401.080688
18.29 398.359344
18.30 402.138794
18.31 406.958832
18.32 401.774963
18.33 391.834259
18.34 388.073181
18.35 385.441193
18.36 386.087402
18.37 386.399963
18.38 388.942047
18.39 393.25119
18.40 400.575531
18.41 404.063019
18.42 409.9953
18.43 412.463593
18.44 402.436096
18.45 404.856201
18.46 413.566132
18.47 411.345215
18.48 406.112549
18.49 401.548676
18.50 397.495483
18.51 396.606873
18.52 402.589478
18.53 406.548126
18.54 406.067078
18.55 405.920227
18.56 405.558258
18.57 408.153473
18.58 408.898254
18.59 405.380249
18.60 407.408997
18.61 408.941315
18.62 413.332214
18.63 416.000366
18.64 411.616333
18.65 410.079742
18.66 410.648712
18.67 409.609497
18.68 414.744934
18.69 422.665314
18.70 416.234985
18.71 410.195984
18.72 416.921722
18.73 421.636169
18.74 418.23114
18.75 412.233124
18.76 406.512878
18.77 403.047333
18.78 412.544434
18.79 422.77417
18.80 419.458008
18.81 419.454803
18.82 423.702667
18.83 425.242249
18.84 420.838898
18.85 411.472229
18.86 402.82666
18.87 397.476776
18.88 403.528442
18.89 414.21344
18.90 423.303253
18.91 420.998596
18.92 414.097565
18.93 414.058655
18.94 415.8992
18.95 417.214874
18.96 408.560669
18.97 407.824799
18.98 416.751953
18.99 419.920074
19.00 421.325989
19.01 430.885559
19.02 438.942444
19.03 435.216888
19.04 430.687408
19.05 425.248657
19.06 417.76947
19.07 421.646118
19.08 426.457184
19.09 426.536377
19.10 426.020477
19.11 420.283447
19.12 416.686859
19.13 427.570526
19.14 433.678802
19.15 427.478882
19.16 423.640961
19.17 420.670685
19.18 424.535797
19.19 434.038605
19.20 435.866028
19.21 428.46936
19.22 425.561371
19.23 427.683899
19.24 430.596832
19.25 441.499542
19.26 454.002747
19.27 456.597595
19.28 447.63446
19.29 439.398804
19.30 438.223175
19.31 443.332611
19.32 447.006836
19.33 441.888458
19.34 434.800201
19.35 430.389343
19.36 432.591156
19.37 442.432312
19.38 452.007721
19.39 458.64032
19.40 460.278015
19.41 454.285828
19.42 447.947205
19.43 444.824554
19.44 441.547272
19.45 434.260559
19.46 439.556549
19.47 446.213287
19.48 448.395203
19.49 453.395599
19.50 457.546936
19.51 451.935455
19.52 452.231232
19.53 457.866455
19.54 453.969208
19.55 450.258392
19.56 447.088928
19.57 444.779327
19.58 454.145935
19.59 460.881805
19.60 455.492493
19.61 451.647247
19.62 450.504364
19.63 448.727081
19.64 439.001923
19.65 440.801636
19.66 449.898193
19.67 447.52121
19.68 447.895203
19.69 459.611023
19.70 470.24527
19.71 468.115753
19.72 471.988434
19.73 473.144806
19.74 461.118744
19.75 454.283752
19.76 450.045013
19.77 445.173126
19.78 451.865906
19.79 458.615021
19.80 458.203522
19.81 461.004669
19.82 462.057587
19.83 453.621979
19.84 450.773529
19.85 458.275391
19.86 461.67099
19.87 461.460327
19.88 459.330719
19.89 458.596527
19.90 467.500275
19.91 474.203796
19.92 470.076324
19.93 462.628204
19.94 466.824493
19.95 474.811066
19.96 478.855835
19.97 479.360657
19.98 479.214691
19.99 481.753876
20.00 479.84729
20.01 473.417053
20.02 467.298615
20.03 464.960449
20.04 469.305817
20.05 478.434937
20.06 486.987488
20.07 484.999573
20.08 481.221649
20.09 476.96109
20.10 469.396027
20.11 474.49469
20.12 475.718231
20.13 467.31778
20.14 464.481598
20.15 466.830994
20.16 473.633636
20.17 482.093201
20.18 484.274689
20.19 480.230896
20.20 476.321045
20.21 474.852753
20.22 474.028687
20.23 467.638458
20.24 469.383453
20.25 482.219452
20.26 486.403229
20.27 487.189972
20.28 484.371124
20.29 483.670746
20.30 490.741882
20.31 495.868958
20.32 489.730988
20.33 488.533417
20.34 490.356628
20.35 491.644623
20.36 494.756073
20.37 493.07373
20.38 489.585327
20.39 490.013672
20.40 488.902222
20.41 500.269989
20.42 504.14032
20.43 493.543396
20.44 489.522583
20.45 497.524445
20.46 496.223358
20.47 495.619995
20.48 493.30069
20.49 484.783478
20.50 482.262207
20.51 494.306396
20.52 503.417389
20.53 501.282623
20.54 499.553833
20.55 499.854218
20.56 499.58548
20.57 501.542084
20.58 506.076721
20.59 515.176208
20.60 518.337463
20.61 511.309937
20.62 510.418304
20.63 499.514587
20.64 487.475677
20.65 487.766357
20.66 493.426788
20.67 497.317871
20.68 506.538788
20.69 508.821228
20.70 500.753143
20.71 493.862823
20.72 497.044922
20.73 500.418579
20.74 508.193787
20.75 514.906311
20.76 520.260315
20.77 519.268494
20.78 515.51593
20.79 513.379761
20.80 511.935455
20.81 508.641327
20.82 504.746063
20.83 508.674561
20.84 509.502838
20.85 503.361816
20.86 501.99826
20.87 509.462585
20.88 518.896606
20.89 517.251526
20.90 514.904846
20.91 515.265198
20.92 514.00769
20.93 514.466736
20.94 522.285339
20.95 523.30127
20.96 517.596008
20.97 526.470154
20.98 533.154114
20.99 528.237
21.00 524.564026
21.01 529.736267
21.02 524.691772
21.03 521.000061
21.04 522.769592
21.05 518.717773
21.06 512.897095
21.07 511.243378
21.08 514.958496
21.09 522.157654
21.10 532.638
21.11 532.130493
21.12 525.982971
21.13 524.834351
21.14 522.182495
21.15 521.370667
21.16 523.873718
21.17 529.520325
21.18 532.820557
21.19 534.911011
21.20 535.709717
21.21 536.369263
21.22 536.262573
21.23 533.447327
21.24 530.303101
21.25 532.033508
21.26 532.956299
21.27 536.354614
21.28 534.245178
21.29 528.684753
21.30 535.665527
21.31 536.202332
21.32 536.417175
21.33 533.259399
21.34 533.138611
21.35 543.902466
21.36 553.207397
21.37 555.055481
21.38 548.100769
21.39 541.179443
21.40 540.482056
21.41 537.973389
21.42 537.596008
21.43 542.255615
21.44 547.366821
21.45 553.782959
21.46 555.121521
21.47 551.808289
21.48 544.177856
21.49 537.75116
21.50 543.418152
21.51 549.916016
21.52 550.240479
21.53 551.325684
21.54 554.072754
21.55 548.293579
21.56 546.945862
21.57 554.773376
21.58 562.639038
21.59 567.390503
21.60 559.770874
21.61 557.404602
21.62 563.424133
21.63 564.244141
21.64 560.856201
21.65 565.415527
21.66 574.607117
21.67 581.460815
21.68 582.412476
21.69 579.457214
21.70 581.792786
21.71 579.792725
21.72 577.343384
21.73 576.244873
21.74 572.527649
21.75 569.155945
21.76 567.737
21.77 572.039917
21.78 578.650208
21.79 577.80127
21.80 577.256104
21.81 581.344971
21.82 579.669739
21.83 579.513489
21.84 572.690491
21.85 573.012878
21.86 581.349487
21.87 584.57074
21.88 581.682129
21.89 582.994019
21.90 587.996399
21.91 591.521912
21.92 595.300903
21.93 591.439026
21.94 581.274048
21.95 570.316528
21.96 570.696106
21.97 581.06012
21.98 580.151917
21.99 578.503784
22.00 578.214172
22.01 578.213501
22.02 577.920776
22.03 579.561157
22.04 577.062012
22.05 577.302124
22.06 585.357605
22.07 580.772339
22.08 579.25293
22.09 582.896912
22.10 582.000854
22.11 581.988708
22.12 582.302124
22.13 582.007874
22.14 579.481384
22.15 577.120544
22.16 581.786926
22.17 577.832092
22.18 571.432312
22.19 566.740906
22.20 568.882446
22.21 574.660828
22.22 572.591919
22.23 580.204895
22.24 583.083862
22.25 579.911072
22.26 573.834656
22.27 565.692322
22.28 574.945129
22.29 587.156616
22.30 592.067566
22.31 591.048157
22.32 582.619995
22.33 581.660583
22.34 585.924377
22.35 578.503296
22.36 572.280762
22.37 577.766357
22.38 587.024475
22.39 587.660461
22.40 581.960754
22.41 577.015808
22.42 573.303162
22.43 574.899475
22.44 578.38208
22.45 581.775818
22.46 583.915161
22.47 592.095093
22.48 598.64093
22.49 602.384888
22.50 598.067627
22.51 586.376831
22.52 581.123352
22.53 574.323364
22.54 571.969604
22.55 578.158875
22.56 577.478149
22.57 577.41687
22.58 587.055176
22.59 587.583557
22.60 582.882507
22.61 586.25708
22.62 592.429443
22.63 595.536133
22.64 597.74762
22.65 600.038086
22.66 600.896362
22.67 599.393188
22.68 595.045471
22.69 594.600403
22.70 589.812927
22.71 586.700134
22.72 586.141174
22.73 587.267517
22.74 587.347351
22.75 588.746277
22.76 588.745972
22.77 591.181274
22.78 592.568359
22.79 596.319946
22.80 601.654602
22.81 605.219604
22.82 595.956909
22.83 590.948364
22.84 597.005554
22.85 597.278809
22.86 600.621765
22.87 603.405701
22.88 599.83606
22.89 602.81604
22.90 605.968689
22.91 602.245483
22.92 607.160583
22.93 606.803467
22.94 603.916199
22.95 602.704895
22.96 601.180786
22.97 603.330444
22.98 606.965637
22.99 604.751221
23.00 597.93219
23.01 597.072327
23.02 605.178772
23.03 611.409302
23.04 613.523376
23.05 612.404297
23.06 611.579163
23.07 611.347473
23.08 608.403015
23.09 617.521057
23.10 621.18512
23.11 614.165771
23.12 614.850647
23.13 612.025879
23.14 605.70575
23.15 602.548218
23.16 597.637207
23.17 591.976013
23.18 601.658691
23.19 606.989075
23.20 602.676514
23.21 602.978333
23.22 606.072449
23.23 614.740723
23.24 616.549011
23.25 609.8255
23.26 612.411499
23.27 613.753296
23.28 608.421753
23.29 610.751526
23.30 615.430481
23.31 616.768738
23.32 616.809753
23.33 610.886108
23.34 604.114197
23.35 601.846863
23.36 601.060608
23.37 609.023499
23.38 608.427002
23.39 609.228088
23.40 615.811157
23.41 614.536194
23.42 616.586487
23.43 620.111816
23.44 614.252747
23.45 610.360718
23.46 614.263733
23.47 617.302429
23.48 612.987305
23.49 610.746582
23.50 608.429443
23.51 610.459045
23.52 608.817261
23.53 604.613403
23.54 602.137512
23.55 599.02887
23.56 601.25293
23.57 610.74939
23.58 610.037476
23.59 612.523315
23.60 611.935364
23.61 609.4646
23.62 609.568726
23.63 612.281677
23.64 619.520325
23.65 624.40625
23.66 623.028748
23.67 625.170227
23.68 621.161987
23.69 610.496582
23.70 620.706299
23.71 620.921143
23.72 611.796936
23.73 615.455811
23.74 619.59845
23.75 624.676331
23.76 632.681274
23.77 627.075806
23.78 616.656067
23.79 613.335144
23.80 616.170349
23.81 616.794312
23.82 614.59082
23.83 612.474792
23.84 615.64032
23.85 619.089783
23.86 624.080994
23.87 630.028809
23.88 635.738892
23.89 628.483521
23.90 622.16571
23.91 618.965942
23.92 615.454651
23.93 615.092102
23.94 622.32196
23.95 622.493347
23.96 618.512024
23.97 620.423157
23.98 622.968445
23.99 627.29364
24.00 629.147034
24.01 627.121399
24.02 620.01355
24.03 615.683472
24.04 608.347961
24.05 605.092468
24.06 608.734863
24.07 617.51709
24.08 621.632629
24.09 617.396179
24.10 619.55603
24.11 619.349182
24.12 612.731628
24.13 610.327332
24.14 610.920776
24.15 613.25415
24.16 609.065186
24.17 605.506592
24.18 608.439819
24.19 614.247681
24.20 613.789734
24.21 613.18219
24.22 610.272156
24.23 612.31604
24.24 618.430908
24.25 625.116028
24.26 623.923584
24.27 621.973999
24.28 627.927124
24.29 629.661072
24.30 625.219666
24.31 624.45752
24.32 627.167908
24.33 628.352234
24.34 623.843872
24.35 621.587219
24.36 624.967896
24.37 619.698669
24.38 614.079407
24.39 623.39032
24.40 623.919312
24.41 618.358276
24.42 622.009521
24.43 623.205383
24.44 617.044556
24.45 610.630737
24.46 615.022888
24.47 630.59613
24.48 638.197266
24.49 635.304077
24.50 640.884644
24.51 637.520935
24.52 633.758728
24.53 634.764954
24.54 633.093506
24.55 637.348328
24.56 639.401123
24.57 643.115967
24.58 642.216858
24.59 632.034912
24.60 629.133789
24.61 637.164612
24.62 635.998352
24.63 638.201233
24.64 633.083679
24.65 626.340515
24.66 626.225891
24.67 626.857849
24.68 632.326538
24.69 637.941772
24.70 635.346191
24.71 630.793335
24.72 635.794556
24.73 630.402344
24.74 620.032532
24.75 626.223938
24.76 631.349365
24.77 633.286194
24.78 639.58783
24.79 640.709045
24.80 642.179077
24.81 638.915894
24.82 630.793213
24.83 628.844727
24.84 633.317322
24.85 630.522217
24.86 635.670471
24.87 633.140137
24.88 632.747925
24.89 633.419739
24.90 629.820618
24.91 632.561035
24.92 642.835815
24.93 648.1875
24.94 647.015381
24.95 642.121399
24.96 639.218994
24.97 640.454529
24.98 638.996033
24.99 628.045288
25.00 618.968994
25.01 617.436768
25.02 618.907959
25.03 626.950928
25.04 637.178589
25.05 637.92749
25.06 631.748291
25.07 627.109131
25.08 628.332031
25.09 631.909119
25.10 629.228516
25.11 629.748047
25.12 633.557678
25.13 627.50824
25.14 620.210388
25.15 625.910767
25.16 625.906738
25.17 625.655945
25.18 625.933472
25.19 620.661926
25.20 621.917053
25.21 628.726501
25.22 634.619507
25.23 638.639709
25.24 644.343506
25.25 644.90155
25.26 639.408813
25.27 632.394104
25.28 632.922119
25.29 635.296448
25.30 639.663513
25.31 649.199036
25.32 647.727234
25.33 636.772034
25.34 629.070129
25.35 628.638245
25.36 632.070129
25.37 630.334045
25.38 628.41748
25.39 630.326416
25.40 630.1875
25.41 631.255737
25.42 628.923401
25.43 618.708374
25.44 616.0896
25.45 624.889282
25.46 633.059509
25.47 641.575806
25.48 637.705017
25.49 634.060913
25.50 633.717224
25.51 631.677307
25.52 634.991211
25.53 633.990662
25.54 624.913635
25.55 623.352783
25.56 628.044312
25.57 633.205627
25.58 646.229553
25.59 656.002319
25.60 656.989014
25.61 651.489258
25.62 643.851318
25.63 643.402954
25.64 638.098206
25.65 636.49353
25.66 645.037109
25.67 643.359131
25.68 639.024048
25.69 633.731384
25.70 628.331482
25.71 626.861145
25.72 624.590942
25.73 629.632446
25.74 638.56781
25.75 637.667175
25.76 633.796021
25.77 633.485657
25.78 630.216431
25.79 631.477173
25.80 631.061951
25.81 624.704834
25.82 625.742493
25.83 630.387512
25.84 636.462646
25.85 639.242249
25.86 641.866211
25.87 631.99823
25.88 637.034485
25.89 647.59491
25.90 642.155396
25.91 637.185181
25.92 626.63324
25.93 617.814148
25.94 621.422791
25.95 621.17218
25.96 620.718567
25.97 622.286255
25.98 615.910034
25.99 618.619995
26.00 627.164185
26.01 625.028076
26.02 629.434143
26.03 634.617859
26.04 634.131897
26.05 634.277588
26.06 633.088806
26.07 633.117554
26.08 624.568176
26.09 625.249939
26.10 633.43927
26.11 637.644043
26.12 638.988342
26.13 637.3927
26.14 636.099854
26.15 639.354858
26.16 641.287598
26.17 638.455688
26.18 634.780884
26.19 632.417053
26.20 626.635498
26.21 629.171265
26.22 633.172119
26.23 629.743347
26.24 627.585999
26.25 628.388306
26.26 628.481262
26.27 634.275146
26.28 635.496765
26.29 630.912354
26.30 629.599182
26.31 637.051819
26.32 640.58667
26.33 627.67865
26.34 625.171082
26.35 629.900269
26.36 633.055603
26.37 632.614868
26.38 627.553955
26.39 623.561035
26.40 630.697693
26.41 637.217712
26.42 635.486389
26.43 635.780334
26.44 637.017273
26.45 630.766602
26.46 634.5896
26.47 635.805542
26.48 632.224365
26.49 628.816711
26.50 624.154968
26.51 621.27594
26.52 631.944641
26.53 638.307373
26.54 631.298523
26.55 634.52478
26.56 637.269775
26.57 635.153137
26.58 629.630615
26.59 622.572327
26.60 622.316467
26.61 624.388733
26.62 627.419373
26.63 626.399231
26.64 619.43103
26.65 619.216736
26.66 619.74646
26.67 621.481018
26.68 623.660706
26.69 616.633362
26.70 613.320129
26.71 619.365967
26.72 624.718323
26.73 631.321594
26.74 631.089539
26.75 621.760803
26.76 613.03125
26.77 615.600708
26.78 617.925476
26.79 617.139954
26.80 620.402283
26.81 617.486938
26.82 627.60968
26.83 635.195557
26.84 632.582703
26.85 635.10376
26.86 635.801147
26.87 625.302856
26.88 621.229065
26.89 617.530518
26.90 616.225098
26.91 617.322327
26.92 618.135254
26.93 621.369324
26.94 620.727051
26.95 620.741272
26.96 622.907349
26.97 619.029785
26.98 620.342407
26.99 620.115112
27.00 616.283691
27.01 624.120972
27.02 634.28595
27.03 633.463196
27.04 627.337036
27.05 625.12915
27.06 624.7146
27.07 626.226074
27.08 632.726501
27.09 638.912903
27.10 642.227417
27.11 636.478943
27.12 626.344482
27.13 620.733276
27.14 622.804321
27.15 625.790649
27.16 618.673828
27.17 611.373291
27.18 613.934265
27.19 613.077393
27.20 615.445129
27.21 623.127197
27.22 623.200134
27.23 615.956726
27.24 612.988037
27.25 608.310974
27.26 604.131042
27.27 607.617615
27.28 611.740295
27.29 607.674805
27.30 611.215149
27.31 618.341736
27.32 622.080078
27.33 623.490662
27.34 618.386292
27.35 617.477417
27.36 621.969299
27.37 624.404358
27.38 622.087952
27.39 619.812927
27.40 620.362976
27.41 617.994385
27.42 610.855286
27.43 607.253357
27.44 612.103516
27.45 610.775879
27.46 612.51123
27.47 616.470398
27.48 616.596436
27.49 613.557739
27.50 615.845764
27.51 616.580017
27.52 613.227539
27.53 610.736206
27.54 609.673767
27.55 615.793884
27.56 614.432007
27.57 612.85144
27.58 612.501892
27.59 609.867981
27.60 607.470032
27.61 610.676147
27.62 611.816589
27.63 615.296997
27.64 625.973206
27.65 630.899658
27.66 622.318787
27.67 617.250366
27.68 613.760315
27.69 618.481445
27.70 624.555481
27.71 623.666931
27.72 617.954163
27.73 618.112366
27.74 619.570984
27.75 619.773743
27.76 616.67627
27.77 613.39917
27.78 612.284668
27.79 614.13623
27.80 614.85022
27.81 617.319519
27.82 623.008362
27.83 621.335449
27.84 611.85376
27.85 602.957703
27.86 608.675232
27.87 610.029175
27.88 608.367188
27.89 617.492188
27.90 621.43927
27.91 619.556152
27.92 623.086548
27.93 620.508911
27.94 615.314514
27.95 613.383301
27.96 615.431885
27.97 618.59021
27.98 618.369446
27.99 611.592285
28.00 611.319275
28.01 615.022644
28.02 610.069092
28.03 605.624329
28.04 609.629395
28.05 621.657654
28.06 624.262146
28.07 620.796021
28.08 618.605347
28.09 616.388245
28.10 616.728638
28.11 615.36377
28.12 611.048218
28.13 607.475525
28.14 604.709656
28.15 606.865479
28.16 613.662842
28.17 623.429565
28.18 631.301636
28.19 627.241699
28.20 624.692749
28.21 617.163147
28.22 610.120972
28.23 611.665588
28.24 609.795715
28.25 603.695984
28.26 606.344238
28.27 617.169128
28.28 620.587524
28.29 614.164795
28.30 615.424683
28.31 619.330994
28.32 616.207642
28.33 612.444397
28.34 613.095825
28.35 609.361572
28.36 609.657043
28.37 608.833801
28.38 601.73584
28.39 595.693481
28.40 597.139099
28.41 604.474609
28.42 606.241394
28.43 610.037048
28.44 612.479614
28.45 615.549805
28.46 619.973389
28.47 623.880188
28.48 619.762085
28.49 612.622375
28.50 610.745239
28.51 611.737793
28.52 607.088806
28.53 607.209412
28.54 615.112549
28.55 623.973328
28.56 628.432129
28.57 623.991089
28.58 622.215088
28.59 623.077637
28.60 621.970276
28.61 624.048401
28.62 625.986328
28.63 621.225769
28.64 622.133789
28.65 619.624573
28.66 616.845764
28.67 613.717468
28.68 614.915344
28.69 620.279724
28.70 612.43573
28.71 602.899963
28.72 607.835754
28.73 611.256348
28.74 609.181396
28.75 613.074707
28.76 619.331909
28.77 612.06189
28.78 605.240173
28.79 604.59375
28.80 604.875793
28.81 606.333496
28.82 606.382874
28.83 609.803528
28.84 609.593079
28.85 611.809631
28.86 609.775024
28.87 603.23175
28.88 600.593384
28.89 596.214783
28.90 595.803406
28.91 597.664307
28.92 598.161865
28.93 601.413086
28.94 605.857117
28.95 602.451172
28.96 595.968933
28.97 595.361938
28.98 596.649353
28.99 598.425049
29.00 599.07959
29.01 600.931702
29.02 606.184692
29.03 603.701599
29.04 596.780029
29.05 590.772644
29.06 588.045288
29.07 589.619263
29.08 589.210266
29.09 599.1521
29.10 615.062378
29.11 620.796448
29.12 613.459351
29.13 606.4198
29.14 596.659607
29.15 596.558105
29.16 597.976929
29.17 592.214111
29.18 591.602661
29.19 595.035339
29.20 600.317261
29.21 603.133484
29.22 602.707764
29.23 598.658691
29.24 595.654175
29.25 597.015381
29.26 599.338379
29.27 600.829956
29.28 598.888123
29.29 600.500671
29.30 609.205322
29.31 612.189087
29.32 602.512573
29.33 600.343872
29.34 603.360168
29.35 603.926819
29.36 603.237366
29.37 602.893127
29.38 604.191162
29.39 608.314209
29.40 608.625
29.41 598.126282
29.42 591.014648
29.43 594.062988
29.44 599.468445
29.45 602.998291
29.46 600.663086
29.47 593.142395
29.48 585.251465
29.49 584.220459
29.50 591.060791
29.51 596.89502
29.52 601.492249
29.53 600.793335
29.54 595.873657
29.55 594.097351
29.56 601.518738
29.57 597.92157
29.58 581.781128
29.59 574.430237
29.60 584.363831
29.61 589.851563
29.62 584.81897
29.63 586.18811
29.64 593.106812
29.65 594.507935
29.66 600.964905
29.67 604.297791
29.68 595.891296
29.69 591.922363
29.70 584.171875
29.71 577.320129
29.72 584.41156
29.73 588.990662
29.74 597.694763
29.75 598.234009
29.76 590.251831
29.77 592.849915
29.78 597.833801
29.79 600.718933
29.80 596.476807
29.81 590.646423
29.82 591.44519
29.83 595.776733
29.84 597.888611
29.85 593.377991
29.86 593.529541
29.87 593.018555
29.88 594.547058
29.89 596.649109
29.90 597.49939
29.91 600.733765
29.92 598.700256
29.93 600.697083
29.94 600.279846
29.95 592.497192
29.96 589.532898
29.97 590.174133
29.98 593.792297
29.99 591.845886
30.00 589.933044
30.01 590.846008
30.02 583.715088
30.03 584.13855
30.04 592.103638
30.05 592.487854
30.06 588.457764
30.07 585.880554
30.08 579.36145
30.09 578.508545
30.10 577.951843
30.11 576.167297
30.12 578.024231
30.13 584.89325
30.14 591.958679
30.15 597.676331
30.16 596.888367
30.17 592.569336
30.18 581.692078
30.19 575.334961
30.20 582.214294
30.21 587.426697
30.22 590.76239
30.23 591.719238
30.24 590.400452
30.25 589.490417
30.26 585.483215
30.27 585.750061
30.28 585.427002
30.29 586.503967
30.30 595.366638
30.31 590.384033
30.32 587.570801
30.33 589.332703
30.34 589.010803
30.35 586.419922
30.36 587.953491
30.37 585.541565
30.38 585.594543
30.39 584.334229
30.40 578.572021
30.41 582.739868
30.42 585.444458
30.43 588.402893
30.44 584.594299
30.45 583.050903
30.46 588.780396
30.47 598.148132
30.48 597.728516
30.49 584.700134
30.50 579.738281
30.51 582.819092
30.52 589.095764
30.53 591.95636
30.54 596.132385
30.55 606.169373
30.56 605.036621
30.57 594.484802
30.58 588.808472
30.59 592.61615
30.60 599.084778
30.61 599.129333
30.62 595.026611
30.63 599.488098
30.64 603.859131
30.65 604.212463
30.66 603.053406
30.67 599.030701
30.68 596.668701
30.69 602.604553
30.70 603.67627
30.71 600.28894
30.72 599.614502
30.73 596.26239
30.74 595.332886
30.75 597.487366
30.76 605.842651
30.77 611.06427
30.78 608.937622
30.79 613.343872
30.80 619.843811
30.81 617.903809
30.82 619.728455
30.83 623.944702
30.84 629.079285
30.85 630.789185
30.86 639.205383
30.87 643.819702
30.88 644.496338
30.89 645.355225
30.90 646.261963
30.91 646.85199
30.92 655.715393
30.93 664.689209
30.94 667.101563
30.95 671.888611
30.96 677.611755
30.97 684.493774
30.98 689.350098
30.99 701.983032
31.00 704.358215
31.01 707.338501
31.02 714.659241
31.03 718.556335
31.04 724.175476
31.05 725.329712
31.06 731.075989
31.07 739.668823
31.08 741.852783
31.09 744.357422
31.10 748.046082
31.11 749.984253
31.12 753.179504
31.13 755.345154
31.14 764.070984
31.15 762.222168
31.16 752.738403
31.17 741.303894
31.18 737.328552
31.19 726.774109
31.20 717.532776
31.21 710.676636
31.22 701.571838
31.23 700.362122
31.24 693.131775
31.25 689.561523
31.26 676.74408
31.27 670.012573
31.28 662.585144
31.29 660.259155
31.30 656.542358
31.31 654.214172
31.32 650.514893
31.33 642.006714
31.34 638.191589
31.35 629.827148
31.36 618.708557
31.37 613.225525
31.38 616.644043
31.39 615.554871
31.40 616.24585
31.41 611.435974
31.42 597.94928
31.43 597.520569
31.44 603.290283
31.45 603.123962
31.46 601.209595
31.47 600.518677
31.48 594.563049
31.49 588.44397
31.50 581.925232
31.51 575.460632
31.52 573.435669
31.53 575.556458
31.54 580.094299
31.55 576.451233
31.56 573.695313
31.57 574.536438
31.58 570.216248
31.59 567.884216
31.60 573.17572
31.61 569.108521
31.62 564.749573
31.63 564.426392
31.64 566.575378
31.65 565.768677
31.66 565.818604
31.67 564.31781
31.68 557.115662
31.69 559.866089
31.70 563.979553
31.71 560.551819
31.72 554.448303
31.73 559.364563
31.74 563.60199
31.75 558.498718
31.76 557.035217
31.77 558.280945
31.78 557.967285
31.79 555.294861
31.80 551.451965
31.81 549.545837
31.82 548.493042
31.83 549.651917
31.84 549.521729
31.85 548.007263
31.86 547.989563
31.87 542.087158
31.88 540.96759
31.89 543.830994
31.90 544.294678
31.91 543.430786
31.92 545.893677
31.93 553.920654
31.94 552.758789
31.95 550.87146
31.96 556.837585
31.97 563.021729
31.98 559.528381
31.99 553.064392
32.00 548.92865
32.01 545.679871
32.02 540.094299
32.03 540.319519
32.04 539.79303
32.05 539.593506
32.06 538.180054
32.07 537.292236
32.08 537.990479
32.09 544.285461
32.10 546.921753
32.11 551.445557
32.12 555.101074
32.13 552.736084
32.14 555.103333
32.15 556.807617
32.16 550.286011
32.17 539.241943
32.18 533.853027
32.19 535.284424
32.20 540.065857
32.21 539.799194
32.22 537.698914
32.23 536.802307
32.24 533.085571
32.25 537.12854
32.26 543.836182
32.27 545.778259
32.28 545.09613
32.29 546.849548
32.30 545.509155
32.31 541.317444
32.32 538.879333
32.33 536.492188
32.34 532.865723
32.35 530.62085
32.36 530.065063
32.37 526.693298
32.38 524.829041
32.39 524.839478
32.40 518.356323
32.41 520.973938
32.42 527.832031
32.43 526.970276
32.44 532.285522
32.45 533.256531
32.46 530.257019
32.47 532.880432
32.48 536.832153
32.49 533.697998
32.50 528.925537
32.51 532.184204
32.52 533.27417
32.53 532.072876
32.54 525.440857
32.55 520.987061
32.56 516.335999
32.57 517.978516
32.58 521.718384
32.59 522.30481
32.60 523.137756
32.61 524.477905
32.62 518.650757
32.63 513.999817
32.64 517.499512
32.65 521.759766
32.66 525.249146
32.67 527.525024
32.68 523.408447
32.69 519.992493
32.70 513.54126
32.71 510.748383
32.72 514.116699
32.73 511.304291
32.74 510.556152
32.75 513.517273
32.76 515.230774
32.77 519.561157
32.78 524.388184
32.79 522.262695
32.80 517.42749
32.81 516.915161
32.82 517.958252
32.83 521.145325
32.84 521.585449
32.85 517.331726
32.86 508.486847
32.87 507.060638
32.88 506.313416
32.89 502.378845
32.90 501.047333
32.91 504.910278
32.92 508.768341
32.93 505.396759
32.94 505.707153
32.95 510.023712
32.96 509.198792
32.97 508.564331
32.98 505.592957
32.99 501.835052
33.00 499.292633
33.01 500.971619
33.02 504.648895
33.03 507.821045
33.04 513.367859
33.05 514.047363
33.06 512.036865
33.07 507.221497
33.08 504.705841
33.09 503.629303
33.10 507.338165
33.11 505.917572
33.12 502.316437
33.13 501.754395
33.14 499.646759
33.15 501.759186
33.16 500.260864
33.17 494.046692
33.18 496.744446
33.19 500.900146
33.20 503.460602
33.21 508.498169
33.22 512.1922
33.23 511.949493
33.24 510.402069
33.25 510.779144
33.26 507.810455
33.27 506.923615
33.28 504.018402
33.29 502.414215
33.30 500.241455
33.31 499.132629
33.32 501.788849
33.33 498.911255
33.34 495.085297
33.35 501.845612
33.36 506.406342
33.37 503.166809
33.38 502.098602
33.39 500.542145
33.40 500.4711
33.41 501.578125
33.42 501.98642
33.43 504.608398
33.44 501.008331
33.45 493.51709
33.46 490.845703
33.47 493.240326
33.48 492.704376
33.49 493.637421
33.50 496.215179
33.51 492.165436
33.52 493.139008
33.53 497.93335
33.54 495.633331
33.55 494.871643
33.56 503.203766
33.57 502.292725
33.58 496.342102
33.59 492.990326
33.60 491.348175
33.61 493.301849
33.62 492.808777
33.63 489.450531
33.64 492.678375
33.65 500.051514
33.66 496.946777
33.67 492.372284
33.68 493.127258
33.69 497.759064
33.70 496.205078
33.71 493.335388
33.72 496.107269
33.73 492.899414
33.74 484.045654
33.75 488.64035
33.76 491.884247
33.77 492.74588
33.78 492.041077
33.79 487.476837
33.80 485.534515
33.81 485.877014
33.82 490.944672
33.83 500.051819
33.84 493.483551
33.85 487.330811
33.86 488.797394
33.87 484.468323
33.88 484.635529
33.89 482.836426
33.90 481.001068
33.91 478.027924
33.92 479.118073
33.93 480.769623
33.94 488.453979
33.95 492.443787
33.96 485.198212
33.97 475.359955
33.98 472.217285
33.99 474.469177
34.00 478.629822
34.01 480.636322
34.02 477.709778
34.03 478.992859
34.04 477.274048
34.05 478.567383
34.06 483.231903
34.07 482.849609
34.08 476.222046
34.09 468.049622
34.10 472.312073
34.11 475.401886
34.12 475.285858
34.13 478.730286
34.14 479.757721
34.15 481.93576
34.16 485.724335
34.17 482.918976
34.18 482.019073
34.19 480.038361
34.20 477.186249
34.21 474.374298
34.22 475.417023
34.23 474.358917
34.24 472.627472
34.25 473.774323
34.26 467.492004
34.27 464.547638
34.28 470.640503
34.29 465.797729
34.30 463.429718
34.31 470.412018
34.32 473.766937
34.33 478.511963
34.34 482.517761
34.35 480.882996
34.36 474.955231
34.37 470.365082
34.38 475.296906
34.39 482.645294
34.40 483.704407
34.41 488.206635
34.42 486.81604
34.43 476.19397
34.44 475.733215
34.45 475.322906
34.46 477.499542
34.47 480.589508
34.48 483.719421
34.49 481.763184
34.50 486.762726
34.51 492.554138
34.52 495.936188
34.53 498.245361
34.54 496.188232
34.55 498.000031
34.56 502.177155
34.57 501.085693
34.58 495.963104
34.59 496.664398
34.60 499.65332
34.61 501.570709
34.62 503.926331
34.63 504.496094
34.64 503.099304
34.65 505.269348
34.66 506.988861
34.67 501.255249
34.68 499.492493
34.69 498.876312
34.70 496.571167
34.71 496.934906
34.72 501.489075
34.73 508.962585
34.74 513.172241
34.75 513.518005
34.76 510.493011
34.77 511.939148
34.78 509.287933
34.79 508.93631
34.80 509.414917
34.81 503.582031
34.82 498.361603
34.83 497.326904
34.84 500.115875
34.85 505.435608
34.86 507.238129
34.87 505.143555
34.88 507.995728
34.89 516.11499
34.90 511.351929
34.91 511.058533
34.92 507.548981
34.93 500.012817
34.94 498.323792
34.95 495.525665
34.96 492.756836
34.97 494.39447
34.98 498.951843
34.99 503.463226
35.00 502.118683
35.01 494.688873
35.02 494.739502
35.03 501.515564
35.04 501.459656
35.05 497.617218
35.06 493.561951
35.07 490.31369
35.08 490.731781
35.09 492.977753
35.10 492.031067
35.11 492.987762
35.12 491.424957
35.13 485.09314
35.14 481.698761
35.15 482.190369
35.16 479.58786
35.17 470.870087
35.18 468.26651
35.19 466.63681
35.20 466.538239
35.21 472.304657
35.22 475.69873
35.23 464.219452
35.24 457.513702
35.25 459.698608
35.26 461.016815
35.27 461.438934
35.28 462.892303
35.29 464.176453
35.30 466.215942
35.31 468.485229
35.32 463.723999
35.33 456.127777
35.34 451.006866
35.35 450.871979
35.36 453.000671
35.37 458.922333
35.38 457.666931
35.39 445.701843
35.40 439.070862
35.41 438.793365
35.42 442.381012
35.43 445.05188
35.44 443.965393
35.45 445.070709
35.46 445.667999
35.47 443.457977
35.48 438.266083
35.49 437.560181
35.50 429.923401
35.51 425.923309
35.52 428.395203
35.53 432.616394
35.54 432.158203
35.55 433.473572
35.56 435.299713
35.57 433.628723
35.58 435.622833
35.59 438.03833
35.60 435.679077
35.61 434.26416
35.62 435.254761
35.63 436.076538
35.64 430.152191
35.65 420.77652
35.66 422.445953
35.67 429.307465
35.68 431.274628
35.69 431.084564
35.70 426.318359
35.71 420.681946
35.72 420.734955
35.73 421.217102
35.74 417.410767
35.75 416.390381
35.76 420.108551
35.77 420.977142
35.78 421.738861
35.79 422.256805
35.80 425.624329
35.81 427.569305
35.82 426.46106
35.83 419.437897
35.84 419.072021
35.85 426.297089
35.86 422.913605
35.87 410.345032
35.88 406.6073
35.89 408.55481
35.90 411.784332
35.91 415.874664
35.92 412.298981
35.93 407.788239
35.94 410.043854
35.95 412.125183
35.96 408.540833
35.97 403.865906
35.98 405.343933
35.99 409.822388
36.00 407.927307
36.01 405.458557
36.02 406.462463
36.03 410.261688
36.04 415.935394
36.05 416.514008
36.06 412.460114
36.07 412.291351
36.08 414.292297
36.09 409.210266
36.10 399.279358
36.11 396.115387
36.12 398.732727
36.13 399.640472
36.14 398.299561
36.15 398.357727
36.16 393.966675
36.17 393.434998
36.18 396.646759
36.19 397.271484
36.20 398.736389
36.21 403.063019
36.22 408.721344
36.23 404.762512
36.24 398.420044
36.25 398.927032
36.26 395.887024
36.27 392.550751
36.28 393.144409
36.29 393.174286
36.30 396.937195
36.31 394.631134
36.32 391.348816
36.33 387.8302
36.34 388.812042
36.35 392.175049
36.36 389.186737
36.37 393.368652
36.38 396.691864
36.39 392.408112
36.40 385.333832
36.41 385.071472
36.42 388.832306
36.43 387.83844
36.44 388.388214
36.45 386.422211
36.46 384.367401
36.47 384.923889
36.48 388.752289
36.49 389.298309
36.50 389.265503
36.51 393.039673
36.52 398.056244
36.53 399.187347
36.54 393.307251
36.55 390.342987
36.56 394.320251
36.57 395.950806
36.58 397.258789
36.59 393.526398
36.60 383.218933
36.61 381.101837
36.62 381.647797
36.63 383.183289
36.64 385.270813
36.65 381.1138
36.66 378.06665
36.67 379.244659
36.68 383.223785
36.69 384.716003
36.70 383.250793
36.71 384.165009
36.72 384.251953
36.73 380.012848
36.74 381.004852
36.75 378.204041
36.76 377.311096
36.77 378.233154
36.78 379.021576
36.79 378.301819
36.80 387.515533
36.81 390.973633
36.82 380.716003
36.83 382.767181
36.84 386.312958
36.85 380.380585
36.86 374.281891
36.87 371.007385
36.88 376.779816
36.89 379.361053
36.90 378.89447
36.91 376.214966
36.92 372.367798
36.93 373.894073
36.94 376.904633
36.95 378.249146
36.96 374.360657
36.97 370.839752
36.98 370.655762
36.99 374.010651
37.00 376.403137
37.01 372.270599
37.02 372.727356
37.03 377.440094
37.04 378.900482
37.05 380.313934
37.06 382.876099
37.07 380.13208
37.08 378.247955
37.09 374.790985
37.10 372.801666
37.11 370.719788
37.12 371.54126
37.13 376.34021
37.14 380.806244
37.15 378.58136
37.16 374.461914
37.17 369.376923
37.18 368.35141
37.19 373.267151
37.20 373.47525
37.21 373.101349
37.22 374.768433
37.23 370.162781
37.24 362.541626
37.25 363.276276
37.26 368.621307
37.27 366.997437
37.28 368.201172
37.29 367.511169
37.30 359.17926
37.31 357.734924
37.32 361.075897
37.33 364.592102
37.34 365.620483
37.35 364.850647
37.36 365.016357
37.37 367.079346
37.38 365.106171
37.39 363.292664
37.40 356.308533
37.41 359.076996
37.42 365.911285
37.43 370.234985
37.44 374.180634
37.45 370.860809
37.46 367.152283
37.47 364.875916
37.48 365.464325
37.49 368.309418
37.50 368.309296
37.51 365.474884
37.52 361.304047
37.53 356.552063
37.54 353.086121
37.55 357.451477
37.56 362.839783
37.57 363.309387
37.58 363.146179
37.59 367.450409
37.60 370.503876
37.61 365.415253
37.62 363.819702
37.63 367.549835
37.64 365.410248
37.65 362.659851
37.66 361.982361
37.67 363.404266
37.68 362.412628
37.69 359.744141
37.70 357.77597
37.71 353.787354
37.72 356.287262
37.73 360.601471
37.74 365.645111
37.75 363.062531
37.76 360.023712
37.77 363.319183
37.78 363.985535
37.79 359.949432
37.80 359.368011
37.81 362.97641
37.82 361.574158
37.83 359.482147
37.84 359.836487
37.85 359.613159
37.86 360.013367
37.87 363.76178
37.88 365.940369
37.89 362.108246
37.90 356.684784
37.91 354.718842
37.92 353.873657
37.93 354.192596
37.94 357.466003
37.95 361.81897
37.96 361.975922
37.97 357.002197
37.98 358.231995
37.99 363.773651
38.00 363.059906
38.01 355.272217
38.02 354.008881
38.03 356.387512
38.04 354.664215
38.05 355.613556
38.06 358.099609
38.07 352.817444
38.08 349.486511
38.09 348.347809
38.10 352.101288
38.11 358.055298
38.12 357.738495
38.13 361.899658
38.14 364.262878
38.15 356.936035
38.16 358.314331
38.17 357.546173
38.18 361.491638
38.19 364.611603
38.20 359.986115
38.21 357.574707
38.22 356.20401
38.23 354.434265
38.24 354.722046
38.25 354.205566
38.26 350.174713
38.27 357.319794
38.28 368.615936
38.29 367.663208
38.30 362.561554
38.31 362.58017
38.32 363.783478
38.33 360.10199
38.34 355.94104
38.35 354.900818
38.36 358.409454
38.37 365.463501
38.38 367.711823
38.39 366.578308
38.40 368.968597
38.41 370.745117
38.42 370.51413
38.43 369.188263
38.44 363.876007
38.45 361.664459
38.46 359.714996
38.47 354.497406
38.48 355.367706
38.49 357.068085
38.50 358.883545
38.51 361.421112
38.52 361.783356
38.53 361.216797
38.54 358.234222
38.55 358.159119
38.56 355.091461
38.57 353.348419
38.58 363.525299
38.59 364.686798
38.60 357.257721
38.61 354.360199
38.62 354.470184
38.63 354.192352
38.64 358.143616
38.65 356.61792
38.66 356.667236
38.67 357.164886
38.68 354.959473
38.69 355.706787
38.70 356.052155
38.71 354.276031
38.72 348.886261
38.73 349.803406
38.74 356.597046
38.75 355.706238
38.76 345.96402
38.77 346.458618
38.78 349.799408
38.79 351.658997
38.80 351.845703
38.81 351.450653
38.82 346.483307
38.83 344.329468
38.84 347.546082
38.85 346.286957
38.86 347.437836
38.87 347.436005
38.88 348.931519
38.89 354.571564
38.90 359.072388
38.91 358.260895
38.92 352.358429
38.93 344.819702
38.94 343.078217
38.95 346.378937
38.96 346.048676
38.97 347.900635
38.98 350.901276
38.99 355.293579
39.00 357.00824
39.01 353.56488
39.02 350.422821
39.03 346.483337
39.04 346.088867
39.05 344.089874
39.06 345.470947
39.07 347.010223
39.08 348.426575
39.09 349.497589
39.10 349.252441
39.11 349.703491
39.12 345.063599
39.13 337.077667
39.14 336.281006
39.15 341.734131
39.16 346.139282
39.17 345.934326
39.18 346.730682
39.19 347.401123
39.20 344.689819
39.21 345.280426
39.22 348.480865
39.23 345.158691
39.24 337.724609
39.25 331.084015
39.26 334.001526
39.27 338.670654
39.28 336.717072
39.29 342.670807
39.30 348.091095
39.31 343.903656
39.32 342.657257
39.33 349.799561
39.34 352.234863
39.35 348.871887
39.36 347.481018
39.37 342.189941
39.38 344.418243
39.39 349.264008
39.40 352.777313
39.41 352.545563
39.42 352.400116
39.43 354.956543
39.44 358.077026
39.45 357.483673
39.46 353.808258
39.47 351.563629
39.48 351.183655
39.49 350.845276
39.50 348.902161
39.51 343.571167
39.52 339.088043
39.53 340.746796
39.54 344.409882
39.55 344.935181
39.56 341.502777
39.57 338.805573
39.58 339.682922
39.59 338.859802
39.60 334.849213
39.61 330.126923
39.62 329.640656
39.63 336.304779
39.64 342.604065
39.65 343.402802
39.66 341.338287
39.67 336.31308
39.68 332.959808
39.69 339.937286
39.70 343.236694
39.71 340.958435
39.72 339.778381
39.73 339.834045
39.74 342.506226
39.75 345.201721
39.76 346.379578
39.77 344.080292
39.78 336.060913
39.79 328.045807
39.80 329.37207
39.81 333.073212
39.82 335.861267
39.83 340.183167
39.84 345.257782
39.85 343.976746
39.86 335.921509
39.87 331.740631
39.88 331.726135
39.89 330.541168
39.90 331.918091
39.91 332.475372
39.92 329.556763
39.93 328.811554
39.94 332.153015
39.95 332.114716
39.96 326.921661
39.97 321.62323
39.98 325.068604
39.99 330.744781
40.00 331.704254
40.01 332.148682
40.02 330.521515
40.03 327.99469
40.04 327.806152
40.05 328.03772
40.06 328.394501
40.07 325.993927
40.08 322.438019
40.09 320.429993
40.10 319.056641
40.11 315.92569
40.12 314.951233
40.13 316.660858
40.14 316.178894
40.15 320.380402
40.16 320.896729
40.17 320.547852
40.18 323.753448
40.19 324.999939
40.20 326.064728
40.21 327.160065
40.22 326.680084
40.23 321.165466
40.24 319.398926
40.25 321.728333
40.26 325.60556
40.27 328.584137
40.28 327.171875
40.29 321.677795
40.30 317.752075
40.31 316.615082
40.32 313.869629
40.33 312.5867
40.34 314.996918
40.35 320.93161
40.36 319.733459
40.37 317.731537
40.38 318.682587
40.39 317.668396
40.40 314.457123
40.41 314.939728
40.42 320.962158
40.43 321.623596
40.44 318.475281
40.45 313.975769
40.46 307.579803
40.47 303.807434
40.48 310.066986
40.49 318.702118
40.50 316.281982
40.51 315.286316
40.52 314.326233
40.53 310.555481
40.54 313.993103
40.55 317.0914
40.56 314.635498
40.57 314.608521
40.58 315.071991
40.59 314.587708
40.60 314.131042
40.61 310.573029
40.62 309.294891
40.63 313.838135
40.64 318.132294
40.65 318.917389
40.66 317.175385
40.67 318.307343
40.68 315.49881
40.69 311.788483
40.70 312.919342
40.71 312.094269
40.72 312.353088
40.73 313.987396
40.74 313.905914
40.75 308.75708
40.76 306.140167
40.77 305.212311
40.78 311.892487
40.79 313.36026
40.80 307.616913
