!@!!GADDS PLOTSO FILE: Chi integration type
!@!!Title/SampleName: ML_MAPbX3_chem15
!@!!User: NREL
!@!!Site: NREL SERF C211; SN 2510
!@!!Frame: C:\frames\rbelisle\MLProject\081922_ML_MAPbX3_chem15_000_000.gfrm
!@!!Wavelengths    1.54184   1.54056   1.54439
!@!!Frame angles: 2Theta: 28.000 Omega: 5.000 Phi: 0.000 Chi: 90.000
!@!!Integration range: 2Theta: 10.000 to 40.000  Gamma: -135.000 to -45.000
!@!!Integration method: bin normalized
!@!N
!@!SS
!@!M
!@!L 0.0 0.0 0.0 0.0
!@!XDegrees
!@!YCounts
10.00 186.018219
10.02 187.809418
10.04 176.15036
10.06 177.902679
10.08 176.706604
10.10 171.704193
10.12 185.889542
10.14 189.893448
10.16 183.269287
10.18 186.415161
10.20 191.697418
10.22 190.490204
10.24 196.220688
10.26 197.992966
10.28 202.291031
10.30 200.962051
10.32 194.50766
10.34 195.215271
10.36 193.326859
10.38 186.013977
10.40 188.719711
10.42 195.238678
10.44 203.087952
10.46 211.17598
10.48 201.751434
10.50 195.452377
10.52 196.1427
10.54 201.329636
10.56 203.889709
10.58 197.765503
10.60 202.014343
10.62 201.621613
10.64 195.333786
10.66 201.699127
10.68 206.630646
10.70 203.544525
10.72 193.496063
10.74 199.733368
10.76 200.446426
10.78 213.829834
10.80 208.952103
10.82 214.073181
10.84 211.478195
10.86 203.478119
10.88 206.118698
10.90 209.112488
10.92 219.438873
10.94 220.697769
10.96 215.022705
10.98 221.609268
11.00 219.273361
11.02 224.994659
11.04 222.854752
11.06 222.270645
11.08 220.846375
11.10 225.273407
11.12 225.168533
11.14 222.95929
11.16 235.269943
11.18 226.445389
11.20 224.378769
11.22 227.915771
11.24 222.537018
11.26 228.580017
11.28 228.61348
11.30 231.015274
11.32 232.662781
11.34 228.77417
11.36 230.36409
11.38 230.375854
11.40 234.866791
11.42 231.313553
11.44 237.285416
11.46 242.397751
11.48 235.166687
11.50 229.589935
11.52 232.567276
11.54 227.557663
11.56 236.269669
11.58 244.66066
11.60 243.516525
11.62 240.940933
11.64 241.848389
11.66 238.764954
11.68 244.954147
11.70 249.583725
11.72 246.069946
11.74 238.095642
11.76 247.242447
11.78 254.923752
11.80 252.657669
11.82 258.034088
11.84 252.375168
11.86 254.020416
11.88 246.68457
11.90 243.300278
11.92 246.169952
11.94 253.37851
11.96 265.745758
11.98 264.688721
12.00 267.632385
12.02 267.703369
12.04 273.048706
12.06 269.164154
12.08 277.327545
12.10 281.661926
12.12 279.661652
12.14 282.146118
12.16 286.782013
12.18 278.988068
12.20 281.54187
12.22 284.502258
12.24 296.710358
12.26 289.388855
12.28 291.453094
12.30 302.877136
12.32 304.885193
12.34 311.264923
12.36 309.221375
12.38 303.397766
12.40 307.371338
12.42 311.543976
12.44 312.773743
12.46 315.709717
12.48 316.45929
12.50 325.592957
12.52 329.004517
12.54 326.382477
12.56 324.186523
12.58 328.072876
12.60 329.753418
12.62 322.922211
12.64 325.830475
12.66 324.24408
12.68 320.243652
12.70 314.624329
12.72 313.686951
12.74 316.482086
12.76 319.867889
12.78 319.782166
12.80 316.364319
12.82 312.021576
12.84 312.015808
12.86 313.470886
12.88 316.266479
12.90 312.344177
12.92 315.555786
12.94 305.016205
12.96 306.350006
12.98 305.267792
13.00 306.016388
13.02 310.769287
13.04 308.616089
13.06 310.187927
13.08 311.648651
13.10 301.357391
13.12 310.286865
13.14 306.299194
13.16 306.190918
13.18 304.248932
13.20 307.945282
13.22 301.896027
13.24 301.553009
13.26 309.010651
13.28 306.570679
13.30 308.51709
13.32 303.871857
13.34 313.065552
13.36 309.127472
13.38 299.351593
13.40 304.052582
13.42 306.330566
13.44 312.290649
13.46 310.592407
13.48 305.703339
13.50 307.944794
13.52 313.121124
13.54 323.905334
13.56 309.571411
13.58 318.85556
13.60 315.333191
13.62 304.991272
13.64 304.155548
13.66 309.654541
13.68 307.662872
13.70 305.553497
13.72 313.310028
13.74 317.795349
13.76 323.710571
13.78 313.433014
13.80 320.561462
13.82 322.372162
13.84 323.915192
13.86 322.474731
13.88 326.468109
13.90 327.060791
13.92 327.06015
13.94 332.963104
13.96 329.491455
13.98 333.101837
14.00 331.577515
14.02 330.237701
14.04 338.031433
14.06 336.912292
14.08 330.224579
14.10 330.693848
14.12 333.067993
14.14 335.55777
14.16 338.748535
14.18 331.768188
14.20 322.950562
14.22 323.062286
14.24 326.687897
14.26 326.713776
14.28 322.331329
14.30 316.947021
14.32 311.837189
14.34 311.955536
14.36 319.546143
14.38 320.820496
14.40 320.83429
14.42 322.243927
14.44 325.127472
14.46 323.277313
14.48 321.572327
14.50 323.002747
14.52 316.686127
14.54 312.340424
14.56 324.057983
14.58 324.362335
14.60 322.623718
14.62 332.408295
14.64 323.823364
14.66 328.720917
14.68 330.576355
14.70 339.363464
14.72 341.351715
14.74 341.818054
14.76 342.265717
14.78 348.790955
14.80 353.092743
14.82 353.875397
14.84 363.140533
14.86 357.140961
14.88 370.10907
14.90 376.932556
14.92 378.497772
14.94 398.086517
14.96 406.735931
14.98 411.952148
15.00 408.582306
15.02 423.926178
15.04 443.624603
15.06 460.252777
15.08 474.497406
15.10 484.094879
15.12 495.390808
15.14 523.848877
15.16 544.297668
15.18 549.238892
15.20 583.324463
15.22 626.980103
15.24 641.848572
15.26 664.384033
15.28 692.703796
15.30 716.993774
15.32 759.257263
15.34 796.175232
15.36 822.453369
15.38 859.877136
15.40 889.510376
15.42 895.529297
15.44 891.485718
15.46 882.001953
15.48 887.202698
15.50 865.065247
15.52 838.329285
15.54 779.589966
15.56 757.848816
15.58 728.802673
15.60 684.540466
15.62 648.844543
15.64 611.897827
15.66 593.138184
15.68 554.34137
15.70 519.203674
15.72 500.290833
15.74 484.46344
15.76 464.557495
15.78 454.797485
15.80 455.316345
15.82 458.005676
15.84 449.936401
15.86 443.021851
15.88 441.730347
15.90 438.519989
15.92 428.927246
15.94 429.751465
15.96 434.003937
15.98 423.424072
16.00 414.027039
16.02 409.831696
16.04 411.392059
16.06 406.785706
16.08 406.92038
16.10 408.463623
16.12 404.31311
16.14 393.330719
16.16 394.963043
16.18 386.769501
16.20 382.305664
16.22 381.034424
16.24 379.210083
16.26 385.977509
16.28 380.08255
16.30 374.554504
16.32 368.250397
16.34 363.506775
16.36 361.295074
16.38 358.983307
16.40 355.947113
16.42 359.05957
16.44 351.247589
16.46 348.875671
16.48 341.532776
16.50 343.192657
16.52 347.944763
16.54 352.7341
16.56 350.550293
16.58 354.35434
16.60 357.945068
16.62 356.665466
16.64 347.554871
16.66 341.837555
16.68 340.586243
16.70 347.039246
16.72 347.722443
16.74 351.226196
16.76 343.575867
16.78 347.170959
16.80 349.686554
16.82 347.832428
16.84 340.294647
16.86 351.507782
16.88 347.112366
16.90 344.255341
16.92 345.109406
16.94 350.41748
16.96 349.73114
16.98 350.975708
17.00 355.501923
17.02 352.782959
17.04 349.912964
17.06 349.271851
17.08 349.394775
17.10 349.513885
17.12 347.252563
17.14 346.303223
17.16 343.999573
17.18 346.747742
17.20 347.42218
17.22 354.086029
17.24 353.966248
17.26 347.265656
17.28 349.860382
17.30 356.966431
17.32 356.136353
17.34 345.871185
17.36 347.772461
17.38 346.803253
17.40 345.706665
17.42 356.181488
17.44 353.578674
17.46 360.287933
17.48 355.271362
17.50 356.179901
17.52 358.918488
17.54 352.71228
17.56 351.766907
17.58 346.324341
17.60 352.91629
17.62 364.362091
17.64 367.508057
17.66 367.626892
17.68 366.571289
17.70 368.968811
17.72 363.649902
17.74 368.039154
17.76 369.044342
17.78 357.399292
17.80 365.868042
17.82 377.986053
17.84 372.852325
17.86 367.054474
17.88 371.217072
17.90 367.788025
17.92 374.936127
17.94 378.589172
17.96 376.523315
17.98 372.938446
18.00 376.495087
18.02 376.423981
18.04 371.466187
18.06 377.68988
18.08 381.334808
18.10 382.097504
18.12 379.955414
18.14 385.627411
18.16 379.356506
18.18 370.853027
18.20 365.538666
18.22 376.359802
18.24 379.657959
18.26 375.266479
18.28 381.572357
18.30 370.000275
18.32 370.943878
18.34 374.655975
18.36 379.635773
18.38 385.335388
18.40 391.720551
18.42 389.639069
18.44 390.513977
18.46 388.599548
18.48 385.609283
18.50 392.859558
18.52 389.637878
18.54 389.262085
18.56 393.157867
18.58 391.938416
18.60 389.191437
18.62 386.911682
18.64 391.430267
18.66 397.776642
18.68 399.393829
18.70 393.885132
18.72 399.2005
18.74 398.916931
18.76 394.487732
18.78 387.680328
18.80 388.682098
18.82 398.457306
18.84 399.942383
18.86 401.657013
18.88 404.138062
18.90 401.658936
18.92 402.255859
18.94 411.110657
18.96 402.514954
18.98 400.375305
19.00 404.768311
19.02 421.493713
19.04 420.889038
19.06 400.240295
19.08 403.583588
19.10 401.270386
19.12 417.682556
19.14 421.974884
19.16 411.963928
19.18 409.538116
19.20 420.915955
19.22 422.012512
19.24 416.088409
19.26 412.337494
19.28 407.964447
19.30 416.920502
19.32 413.499847
19.34 417.299561
19.36 416.385712
19.38 410.830414
19.40 412.039185
19.42 422.637543
19.44 429.71402
19.46 426.074615
19.48 426.165314
19.50 423.162231
19.52 424.825684
19.54 433.271545
19.56 426.960693
19.58 420.86792
19.60 422.270874
19.62 427.297424
19.64 433.554077
19.66 432.654358
19.68 433.709839
19.70 440.49884
19.72 435.764832
19.74 430.458069
19.76 430.688568
19.78 427.680939
19.80 429.041809
19.82 432.76535
19.84 431.791809
19.86 437.73764
19.88 440.751892
19.90 442.869995
19.92 448.08075
19.94 443.010345
19.96 444.168823
19.98 448.59967
20.00 443.60144
20.02 440.619415
20.04 440.21048
20.06 440.126617
20.08 440.264526
20.10 447.204559
20.12 449.987854
20.14 457.940216
20.16 452.95816
20.18 447.040741
20.20 449.884766
20.22 452.440491
20.24 453.679321
20.26 457.916473
20.28 466.673035
20.30 464.392914
20.32 461.617096
20.34 457.968018
20.36 454.023773
20.38 454.61731
20.40 457.767517
20.42 462.637054
20.44 457.053497
20.46 458.30072
20.48 462.790466
20.50 459.414429
20.52 471.361206
20.54 457.997467
20.56 459.838776
20.58 467.126282
20.60 464.261505
20.62 454.590942
20.64 458.928528
20.66 466.362427
20.68 466.464783
20.70 461.868469
20.72 464.254364
20.74 463.412018
20.76 457.801788
20.78 469.475037
20.80 479.692261
20.82 473.873993
20.84 471.579956
20.86 486.866608
20.88 481.473022
20.90 484.500153
20.92 485.408264
20.94 479.320923
20.96 481.779022
20.98 477.764893
21.00 475.799103
21.02 479.533234
21.04 482.850739
21.06 482.807251
21.08 486.389252
21.10 490.569061
21.12 486.243286
21.14 488.984985
21.16 497.012512
21.18 498.14035
21.20 496.663727
21.22 492.208435
21.24 496.962799
21.26 501.7276
21.28 507.666656
21.30 506.166229
21.32 509.664459
21.34 511.41983
21.36 514.326294
21.38 505.725708
21.40 506.899384
21.42 503.437073
21.44 511.760132
21.46 512.951111
21.48 504.63501
21.50 505.355316
21.52 512.507507
21.54 512.89386
21.56 512.622009
21.58 513.33783
21.60 515.230103
21.62 523.541443
21.64 520.272949
21.66 519.848755
21.68 522.262939
21.70 527.288818
21.72 524.382507
21.74 524.044006
21.76 527.864075
21.78 538.054688
21.80 543.863281
21.82 539.141907
21.84 535.902649
21.86 539.798218
21.88 534.63739
21.90 531.671204
21.92 528.634766
21.94 529.237305
21.96 538.421326
21.98 541.060425
22.00 539.025574
22.02 538.822815
22.04 547.927551
22.06 538.300964
22.08 531.693909
22.10 528.986816
22.12 528.434998
22.14 533.776428
22.16 534.08197
22.18 539.691711
22.20 542.437622
22.22 537.621948
22.24 544.752991
22.26 542.494568
22.28 535.490723
22.30 536.859436
22.32 531.199219
22.34 533.07782
22.36 538.368225
22.38 542.034302
22.40 536.029236
22.42 531.442932
22.44 532.490112
22.46 538.805847
22.48 546.133179
22.50 540.904419
22.52 543.637939
22.54 533.02887
22.56 530.893799
22.58 537.581665
22.60 543.547424
22.62 532.484253
22.64 534.485962
22.66 544.863281
22.68 555.62384
22.70 554.309509
22.72 543.455322
22.74 535.210693
22.76 542.399353
22.78 543.12677
22.80 542.899597
22.82 546.248962
22.84 544.423157
22.86 553.873108
22.88 551.451233
22.90 546.802307
22.92 551.293152
22.94 540.028809
22.96 545.100647
22.98 543.15979
23.00 545.893555
23.02 550.891724
23.04 550.444336
23.06 546.095459
23.08 553.6828
23.10 550.632324
23.12 550.97168
23.14 554.918762
23.16 553.751892
23.18 555.978088
23.20 562.513794
23.22 569.214233
23.24 554.226196
23.26 544.48761
23.28 550.629333
23.30 562.512024
23.32 562.621643
23.34 559.42572
23.36 553.384155
23.38 554.185913
23.40 563.49762
23.42 555.157654
23.44 554.538757
23.46 559.884338
23.48 550.625244
23.50 555.153137
23.52 559.900574
23.54 566.261047
23.56 559.062561
23.58 558.658997
23.60 568.75592
23.62 560.871155
23.64 560.915466
23.66 561.752258
23.68 571.48938
23.70 566.648621
23.72 562.536865
23.74 557.126526
23.76 562.552429
23.78 567.239197
23.80 560.875549
23.82 557.050232
23.84 557.492981
23.86 562.459656
23.88 562.253784
23.90 575.747559
23.92 569.826233
23.94 558.649536
23.96 564.600403
23.98 565.502563
24.00 569.192932
24.02 564.793091
24.04 565.387878
24.06 564.796631
24.08 572.334167
24.10 566.364136
24.12 562.305603
24.14 567.374939
24.16 577.365845
24.18 574.685425
24.20 563.771667
24.22 562.729004
24.24 567.049744
24.26 577.435242
24.28 571.766907
24.30 572.210205
24.32 565.239746
24.34 569.448547
24.36 564.741211
24.38 559.322083
24.40 570.048828
24.42 577.146729
24.44 571.723022
24.46 563.889038
24.48 565.625244
24.50 569.344421
24.52 566.855957
24.54 568.353638
24.56 566.905273
24.58 569.333557
24.60 571.92157
24.62 569.140015
24.64 569.927185
24.66 567.156128
24.68 564.899841
24.70 565.080627
24.72 570.863525
24.74 578.072266
24.76 574.689941
24.78 571.497925
24.80 578.15741
24.82 578.622131
24.84 570.024719
24.86 575.152222
24.88 575.946533
24.90 571.895264
24.92 576.177673
24.94 578.12854
24.96 581.979248
24.98 579.862976
25.00 576.737793
25.02 572.821899
25.04 569.377441
25.06 567.066589
25.08 570.758606
25.10 572.112976
25.12 574.215515
25.14 577.295593
25.16 581.661804
25.18 574.771667
25.20 569.490234
25.22 574.552124
25.24 564.91217
25.26 561.462219
25.28 567.757874
25.30 573.302307
25.32 568.837952
25.34 569.711548
25.36 570.678223
25.38 572.927551
25.40 577.358643
25.42 575.183167
25.44 580.36676
25.46 582.59845
25.48 587.716431
25.50 577.500244
25.52 577.630676
25.54 583.092102
25.56 581.916931
25.58 583.240112
25.60 585.163635
25.62 585.701965
25.64 581.405151
25.66 578.694458
25.68 572.24823
25.70 569.955383
25.72 567.883789
25.74 579.025208
25.76 578.703125
25.78 584.149658
25.80 587.889954
25.82 581.494629
25.84 578.519287
25.86 572.910461
25.88 580.732239
25.90 582.076782
25.92 586.984375
25.94 581.148193
25.96 572.677002
25.98 573.695984
26.00 565.823547
26.02 576.60022
26.04 585.4422
26.06 571.88324
26.08 570.849915
26.10 575.306946
26.12 579.494019
26.14 580.177063
26.16 573.525452
26.18 581.872742
26.20 584.748352
26.22 584.616394
26.24 583.570374
26.26 582.733276
26.28 579.979004
26.30 576.840271
26.32 584.026367
26.34 580.325134
26.36 576.459717
26.38 575.914063
26.40 571.724976
26.42 570.187805
26.44 580.964905
26.46 580.122437
26.48 580.567932
26.50 572.71814
26.52 570.010132
26.54 563.496765
26.56 566.743958
26.58 564.531677
26.60 571.98053
26.62 572.118469
26.64 575.056274
26.66 588.184387
26.68 582.174927
26.70 568.063171
26.72 567.221069
26.74 565.154846
26.76 573.153809
26.78 583.194824
26.80 584.507385
26.82 568.924744
26.84 570.288513
26.86 576.584473
26.88 572.693481
26.90 576.402588
26.92 580.180786
26.94 584.710693
26.96 573.599304
26.98 573.569641
27.00 573.620605
27.02 573.696167
27.04 574.758728
27.06 570.402344
27.08 569.908325
27.10 578.467163
27.12 569.791565
27.14 568.474976
27.16 572.756897
27.18 571.635742
27.20 572.386047
27.22 572.638733
27.24 562.971008
27.26 567.956787
27.28 570.269043
27.30 572.896729
27.32 573.682739
27.34 569.821716
27.36 571.500977
27.38 575.183777
27.40 567.783813
27.42 561.628418
27.44 557.311401
27.46 568.330627
27.48 570.689209
27.50 572.187561
27.52 568.39917
27.54 560.536987
27.56 556.534241
27.58 564.253845
27.60 564.863098
27.62 560.149536
27.64 564.015137
27.66 567.248535
27.68 566.836914
27.70 562.649902
27.72 562.359741
27.74 559.889893
27.76 560.389893
27.78 566.505127
27.80 571.181274
27.82 568.960754
27.84 572.409729
27.86 570.522278
27.88 574.136597
27.90 562.860535
27.92 566.152466
27.94 570.362671
27.96 571.565002
27.98 574.268494
28.00 571.350586
28.02 570.529114
28.04 568.617371
28.06 563.212646
28.08 569.002808
28.10 568.963867
28.12 577.841614
28.14 585.0672
28.16 584.400452
28.18 577.798645
28.20 571.631653
28.22 577.071594
28.24 576.145691
28.26 576.231873
28.28 575.166931
28.30 581.942566
28.32 576.027344
28.34 581.02124
28.36 582.885193
28.38 583.133667
28.40 578.249084
28.42 575.092285
28.44 574.894897
28.46 573.365234
28.48 578.509583
28.50 572.335205
28.52 580.192322
28.54 573.644531
28.56 562.621643
28.58 570.286133
28.60 573.014038
28.62 570.627747
28.64 574.29541
28.66 563.825928
28.68 556.973694
28.70 552.264465
28.72 566.030151
28.74 561.355469
28.76 565.165222
28.78 558.278442
28.80 557.638916
28.82 565.66272
28.84 560.638428
28.86 565.444702
28.88 564.505432
28.90 566.320679
28.92 560.834412
28.94 559.662048
28.96 551.87384
28.98 555.957642
29.00 553.264954
29.02 550.56311
29.04 552.343506
29.06 552.383362
29.08 556.898499
29.10 560.841736
29.12 557.638062
29.14 558.890442
29.16 557.515442
29.18 551.201233
29.20 557.401917
29.22 549.176453
29.24 546.295654
29.26 542.525269
29.28 551.175232
29.30 552.079163
29.32 556.960999
29.34 554.354492
29.36 545.617615
29.38 542.290833
29.40 548.966492
29.42 555.694031
29.44 560.162415
29.46 552.20459
29.48 553.02063
29.50 557.976868
29.52 555.695374
29.54 549.357239
29.56 554.020691
29.58 550.833435
29.60 554.24115
29.62 558.726135
29.64 557.122498
29.66 554.537415
29.68 542.902344
29.70 546.805542
29.72 551.63446
29.74 547.018433
29.76 550.253418
29.78 552.024414
29.80 546.637695
29.82 545.631775
29.84 545.291748
29.86 550.706543
29.88 554.881714
29.90 554.390991
29.92 555.172974
29.94 557.451965
29.96 548.13916
29.98 545.871277
30.00 547.072327
30.02 544.8797
30.04 545.060608
30.06 551.139404
30.08 554.729858
30.10 552.711182
30.12 553.979675
30.14 553.27533
30.16 548.080017
30.18 540.267822
30.20 543.670471
30.22 549.038818
30.24 548.31842
30.26 545.176575
30.28 541.908997
30.30 540.080872
30.32 538.343262
30.34 537.744873
30.36 536.226868
30.38 537.609253
30.40 541.558777
30.42 539.374634
30.44 539.794861
30.46 542.292419
30.48 537.308777
30.50 536.169739
30.52 535.501221
30.54 534.875427
30.56 533.768677
30.58 535.169189
30.60 529.995239
30.62 532.555603
30.64 534.106201
30.66 538.046021
30.68 532.736572
30.70 523.637878
30.72 525.060303
30.74 525.263916
30.76 530.955627
30.78 537.456848
30.80 527.658508
30.82 528.277039
30.84 530.184509
30.86 536.283081
30.88 542.852844
30.90 544.918579
30.92 547.622986
30.94 548.184448
30.96 544.100098
30.98 560.905823
31.00 573.314453
31.02 577.199829
31.04 589.138062
31.06 598.954407
31.08 601.147705
31.10 611.361206
31.12 621.74707
31.14 634.045898
31.16 647.094299
31.18 653.10321
31.20 659.0354
31.22 650.108032
31.24 644.30011
31.26 641.537048
31.28 634.788208
31.30 629.809448
31.32 618.463989
31.34 610.267273
31.36 598.163391
31.38 586.297852
31.40 580.25061
31.42 566.224548
31.44 551.958618
31.46 547.217102
31.48 544.886169
31.50 542.358948
31.52 532.708862
31.54 523.327332
31.56 516.548584
31.58 521.384583
31.60 522.099548
31.62 513.237793
31.64 511.585754
31.66 510.4758
31.68 508.038971
31.70 512.439575
31.72 507.027313
31.74 506.655487
31.76 499.524353
31.78 504.885803
31.80 510.139648
31.82 507.57132
31.84 502.658264
31.86 501.956512
31.88 499.800476
31.90 499.080933
31.92 496.546387
31.94 491.56424
31.96 489.068085
31.98 494.500824
32.00 493.623169
32.02 494.185089
32.04 495.098419
32.06 488.796295
32.08 490.803772
32.10 498.413696
32.12 489.082642
32.14 479.462341
32.16 485.119202
32.18 489.467438
32.20 487.092987
32.22 489.789093
32.24 493.975098
32.26 484.990356
32.28 482.751404
32.30 482.033966
32.32 481.691284
32.34 479.005585
32.36 470.541382
32.38 469.927948
32.40 475.032928
32.42 481.410858
32.44 479.569916
32.46 479.135895
32.48 488.838318
32.50 478.538452
32.52 468.178284
32.54 468.463531
32.56 470.080383
32.58 476.768005
32.60 479.536499
32.62 476.560547
32.64 468.781799
32.66 472.371124
32.68 477.222473
32.70 476.58847
32.72 474.8125
32.74 471.154297
32.76 471.134064
32.78 474.107391
32.80 477.549255
32.82 477.622528
32.84 462.329742
32.86 468.771332
32.88 474.040466
32.90 466.147858
32.92 463.681274
32.94 469.713287
32.96 470.551605
32.98 467.588898
33.00 468.21051
33.02 464.016296
33.04 465.552795
33.06 466.106201
33.08 464.297699
33.10 468.481506
33.12 460.04071
33.14 465.21048
33.16 461.285156
33.18 463.753693
33.20 454.259064
33.22 456.95813
33.24 460.270355
33.26 458.489502
33.28 460.2948
33.30 463.005127
33.32 455.255157
33.34 456.041504
33.36 451.032104
33.38 453.782959
33.40 453.729218
33.42 455.715576
33.44 457.288605
33.46 455.274384
33.48 452.675964
33.50 457.75943
33.52 454.871674
33.54 445.596893
33.56 451.854156
33.58 455.642456
33.60 457.829285
33.62 445.72049
33.64 440.610321
33.66 443.539581
33.68 444.67511
33.70 447.753632
33.72 452.262177
33.74 449.247803
33.76 448.85199
33.78 448.452026
33.80 447.570496
33.82 445.79895
33.84 438.513763
33.86 443.829926
33.88 446.622528
33.90 439.771179
33.92 448.988342
33.94 450.081116
33.96 442.12796
33.98 446.429749
34.00 443.397644
34.02 438.98941
34.04 439.156036
34.06 435.635651
34.08 442.146973
34.10 440.921509
34.12 436.996735
34.14 439.700592
34.16 449.246552
34.18 448.859894
34.20 442.458862
34.22 436.279388
34.24 434.657135
34.26 432.515228
34.28 438.397797
34.30 439.680206
34.32 438.314697
34.34 440.431396
34.36 444.373962
34.38 446.486938
34.40 449.126007
34.42 439.033722
34.44 435.347443
34.46 433.084778
34.48 437.285217
34.50 435.678558
34.52 445.269043
34.54 450.257996
34.56 448.938965
34.58 445.669281
34.60 441.865448
34.62 444.14328
34.64 450.633728
34.66 451.907928
34.68 454.297333
34.70 460.247833
34.72 464.767517
34.74 457.26004
34.76 454.007385
34.78 459.165619
34.80 460.684967
34.82 460.033447
34.84 453.573242
34.86 453.069336
34.88 457.718811
34.90 456.337372
34.92 457.475525
34.94 457.184723
34.96 456.125946
34.98 456.603912
35.00 458.070038
35.02 458.898804
35.04 460.028137
35.06 463.770325
35.08 460.782349
35.10 460.095306
35.12 453.850128
35.14 454.648834
35.16 451.170166
35.18 447.499298
35.20 451.013855
35.22 452.144714
35.24 448.174622
35.26 441.193176
35.28 434.023193
35.30 435.001495
35.32 438.402222
35.34 434.753723
35.36 435.241241
35.38 423.70462
35.40 419.651855
35.42 420.463898
35.44 421.712372
35.46 421.158081
35.48 419.23172
35.50 413.472076
35.52 401.790466
35.54 398.57019
35.56 403.552612
35.58 395.328156
35.60 402.206085
35.62 400.941101
35.64 400.038788
35.66 395.823547
35.68 392.48114
35.70 394.44693
35.72 392.065765
35.74 390.630249
35.76 388.345001
35.78 386.72821
35.80 389.254913
35.82 389.974762
35.84 390.856354
35.86 386.250183
35.88 388.553986
35.90 380.297668
35.92 375.393066
35.94 373.328735
35.96 376.774872
35.98 376.103088
36.00 377.717346
36.02 377.780212
36.04 382.148407
36.06 379.654053
36.08 373.924805
36.10 373.341553
36.12 371.707092
36.14 375.431732
36.16 370.164886
36.18 367.282196
36.20 366.965363
36.22 374.99408
36.24 370.213776
36.26 370.671539
36.28 376.511108
36.30 367.639984
36.32 359.122406
36.34 357.929321
36.36 367.837677
36.38 362.390411
36.40 367.289459
36.42 363.843231
36.44 366.301758
36.46 357.341156
36.48 360.699677
36.50 366.496979
36.52 365.253845
36.54 362.869629
36.56 366.444244
36.58 366.110596
36.60 363.905121
36.62 361.93576
36.64 361.125977
36.66 354.96994
36.68 355.744232
36.70 358.894775
36.72 362.742493
36.74 365.977722
36.76 362.610565
36.78 354.077087
36.80 356.815765
36.82 364.343811
36.84 361.545013
36.86 359.962097
36.88 350.907928
36.90 350.904266
36.92 349.511719
36.94 351.042297
36.96 347.262878
36.98 352.349579
37.00 355.883728
37.02 347.454712
37.04 352.488617
37.06 352.267609
37.08 351.365479
37.10 348.879669
37.12 339.27536
37.14 337.844086
37.16 337.092224
37.18 341.289429
37.20 348.373322
37.22 347.255402
37.24 344.549927
37.26 341.464478
37.28 340.170319
37.30 347.058075
37.32 338.025391
37.34 335.110931
37.36 335.979187
37.38 336.573151
37.40 334.74649
37.42 333.433197
37.44 328.826782
37.46 337.27887
37.48 341.963196
37.50 341.386322
37.52 338.144562
37.54 334.062927
37.56 337.787506
37.58 345.505676
37.60 332.163177
37.62 336.302612
37.64 338.991119
37.66 333.73764
37.68 335.556335
37.70 336.78476
37.72 338.668884
37.74 335.039063
37.76 342.567413
37.78 337.324249
37.80 334.111328
37.82 335.411285
37.84 339.277008
37.86 344.136688
37.88 343.515228
37.90 338.970947
37.92 332.5354
37.94 330.63446
37.96 330.12738
37.98 335.153259
38.00 337.805817
38.02 340.729156
38.04 341.514893
38.06 335.626678
38.08 329.943787
38.10 335.407013
38.12 334.222382
38.14 329.627655
38.16 330.796967
38.18 331.199249
38.20 318.914734
38.22 319.446777
38.24 322.085876
38.26 328.315247
38.28 328.755371
38.30 331.270508
38.32 330.643372
38.34 332.53421
38.36 333.021454
38.38 330.136444
38.40 332.716705
38.42 336.28421
38.44 332.201874
38.46 324.879211
38.48 320.361267
38.50 328.515411
38.52 331.510498
38.54 324.686096
38.56 329.023651
38.58 326.803589
38.60 324.93045
38.62 325.607635
38.64 318.225739
38.66 318.518219
38.68 316.957123
38.70 321.891998
38.72 325.507629
38.74 321.477325
38.76 310.42041
38.78 318.371185
38.80 323.503052
38.82 317.062531
38.84 313.987762
38.86 314.540741
38.88 316.764404
38.90 322.242126
38.92 321.062164
38.94 319.595947
38.96 313.466858
38.98 312.213654
39.00 309.379059
39.02 302.41684
39.04 308.852356
39.06 314.499908
39.08 315.378998
39.10 312.102234
39.12 310.770264
39.14 308.798309
39.16 306.119934
39.18 310.467957
39.20 305.403534
39.22 313.784027
39.24 306.781738
39.26 303.970551
39.28 301.645782
39.30 303.329132
39.32 305.221588
39.34 298.971252
39.36 305.38562
39.38 306.47464
39.40 311.449097
39.42 306.485748
39.44 308.969238
39.46 307.995392
39.48 302.767029
39.50 299.666595
39.52 302.914215
39.54 309.282471
39.56 303.751373
39.58 305.368896
39.60 303.727509
39.62 295.445038
39.64 297.077087
39.66 299.710785
39.68 294.992218
39.70 297.305664
39.72 305.923004
39.74 300.382294
39.76 295.375214
39.78 298.815002
39.80 296.832886
39.82 291.021454
39.84 292.402374
39.86 297.126556
39.88 295.93924
39.90 292.262665
39.92 292.433868
39.94 298.640808
39.96 287.914703
39.98 296.065369
40.00 297.488708
