!@!!GADDS PLOTSO FILE: Chi integration type
!@!!Title/SampleName: ML_MAPbX3_chem15
!@!!User: NREL
!@!!Site: NREL SERF C211; SN 2510
!@!!Frame: C:\frames\rbelisle\MLProject\081922_ML_MAPbX3_chem15_000_000.gfrm
!@!!Wavelengths    1.54184   1.54056   1.54439
!@!!Frame angles: 2Theta: 28.000 Omega: 5.000 Phi: 0.000 Chi: 90.000
!@!!Integration range: 2Theta: 10.000 to 40.000  Gamma: -135.000 to -110.000
!@!!Integration method: bin normalized
!@!N
!@!SS
!@!M
!@!L 0.0 0.0 0.0 0.0
!@!XDegrees
!@!YCounts
10.00 153.771622
10.02 139.209427
10.04 135.372284
10.06 138.902084
10.08 153.925949
10.10 147.58931
10.12 155.691605
10.14 148.794525
10.16 150.013885
10.18 159.299438
10.20 163.158401
10.22 164.368408
10.24 160.42157
10.26 151.812943
10.28 161.364243
10.30 159.90538
10.32 150.111923
10.34 162.770523
10.36 169.758957
10.38 170.732681
10.40 172.432129
10.42 173.240387
10.44 179.653854
10.46 172.925293
10.48 172.163635
10.50 163.378036
10.52 163.98912
10.54 159.398483
10.56 173.764435
10.58 177.607513
10.60 167.750031
10.62 156.572754
10.64 161.303116
10.66 160.578766
10.68 171.155243
10.70 166.574005
10.72 153.800369
10.74 160.550323
10.76 169.57341
10.78 197.827499
10.80 186.883804
10.82 183.024643
10.84 169.849197
10.86 164.08931
10.88 162.479553
10.90 175.639175
10.92 175.485809
10.94 177.482452
10.96 182.521667
10.98 186.871262
11.00 191.769104
11.02 186.835876
11.04 189.854996
11.06 197.273605
11.08 197.903778
11.10 189.922607
11.12 183.913055
11.14 181.502625
11.16 192.604187
11.18 193.115616
11.20 191.635757
11.22 194.380035
11.24 190.344772
11.26 192.377014
11.28 188.596817
11.30 190.017517
11.32 197.206177
11.34 200.580124
11.36 209.408279
11.38 198.510803
11.40 201.219299
11.42 193.107086
11.44 197.824554
11.46 203.447235
11.48 196.439117
11.50 185.026352
11.52 190.634872
11.54 184.986176
11.56 203.195724
11.58 214.272507
11.60 202.766724
11.62 212.40834
11.64 207.051895
11.66 204.555389
11.68 205.982788
11.70 210.405594
11.72 210.114563
11.74 197.005203
11.76 203.901932
11.78 210.994904
11.80 211.373413
11.82 223.065918
11.84 224.495514
11.86 206.119202
11.88 208.715759
11.90 194.469833
11.92 197.81926
11.94 206.506958
11.96 210.863953
11.98 207.269638
12.00 220.079941
12.02 220.480942
12.04 222.322128
12.06 216.75528
12.08 228.174454
12.10 229.374771
12.12 228.332626
12.14 240.439362
12.16 240.348984
12.18 243.581284
12.20 226.216751
12.22 224.711487
12.24 241.362396
12.26 231.832809
12.28 225.532562
12.30 226.988724
12.32 227.245285
12.34 232.522217
12.36 229.190659
12.38 216.575943
12.40 233.276505
12.42 243.908279
12.44 216.78566
12.46 236.070541
12.48 241.748795
12.50 245.181732
12.52 247.572174
12.54 243.943115
12.56 226.621368
12.58 222.31839
12.60 232.814758
12.62 241.395386
12.64 245.519699
12.66 244.80098
12.68 237.766418
12.70 234.674545
12.72 222.416397
12.74 231.970947
12.76 247.64827
12.78 255.059906
12.80 254.725616
12.82 252.074844
12.84 243.508255
12.86 249.538773
12.88 252.097168
12.90 232.323944
12.92 245.189835
12.94 246.333511
12.96 251.831055
12.98 233.019745
13.00 232.815948
13.02 246.357071
13.04 247.257217
13.06 253.926682
13.08 244.897324
13.10 234.346085
13.12 262.172577
13.14 243.969345
13.16 247.832672
13.18 235.227829
13.20 252.321503
13.22 243.416214
13.24 249.250214
13.26 261.823212
13.28 257.498932
13.30 245.783386
13.32 253.868607
13.34 266.469299
13.36 256.362213
13.38 261.90802
13.40 241.283722
13.42 235.599518
13.44 250.347046
13.46 240.429504
13.48 238.631042
13.50 251.84198
13.52 252.051819
13.54 260.419373
13.56 254.382416
13.58 261.662323
13.60 256.905701
13.62 237.389633
13.64 246.990494
13.66 262.521027
13.68 254.209473
13.70 247.841843
13.72 260.562012
13.74 271.08374
13.76 285.257782
13.78 254.395981
13.80 255.079178
13.82 244.942612
13.84 247.174728
13.86 250.915787
13.88 261.25293
13.90 275.626953
13.92 260.351379
13.94 268.135803
13.96 259.95163
13.98 253.848358
14.00 251.872055
14.02 257.329681
14.04 265.828369
14.06 265.408356
14.08 264.698547
14.10 283.216736
14.12 265.335022
14.14 268.568085
14.16 278.154175
14.18 269.92453
14.20 270.813721
14.22 259.782837
14.24 269.882263
14.26 271.032104
14.28 278.75647
14.30 277.132538
14.32 274.330902
14.34 269.827942
14.36 275.601654
14.38 268.354492
14.40 276.423248
14.42 290.373383
14.44 292.285645
14.46 288.448059
14.48 271.052185
14.50 266.860687
14.52 268.676514
14.54 265.817627
14.56 273.930756
14.58 282.674683
14.60 273.824768
14.62 291.226715
14.64 263.742249
14.66 266.65979
14.68 286.49176
14.70 290.587982
14.72 285.918396
14.74 282.039001
14.76 273.235718
14.78 277.678131
14.80 280.807495
14.82 289.001434
14.84 291.657288
14.86 275.001282
14.88 283.709442
14.90 299.347595
14.92 286.16449
14.94 286.554718
14.96 292.148315
14.98 301.111542
15.00 274.835571
15.02 276.436676
15.04 284.751099
15.06 307.83194
15.08 296.181427
15.10 285.953064
15.12 286.772919
15.14 297.378754
15.16 296.555389
15.18 292.924469
15.20 300.703156
15.22 316.787781
15.24 302.226318
15.26 303.560974
15.28 295.563263
15.30 292.146637
15.32 310.654968
15.34 307.926331
15.36 301.00705
15.38 296.616241
15.40 283.296265
15.42 290.239441
15.44 274.475006
15.46 283.397247
15.48 297.332062
15.50 300.506165
15.52 308.492279
15.54 304.054413
15.56 286.996399
15.58 285.729767
15.60 276.121216
15.62 283.428741
15.64 307.409637
15.66 314.939636
15.68 326.205719
15.70 316.751251
15.72 307.362885
15.74 294.356445
15.76 279.995605
15.78 286.063324
15.80 306.086151
15.82 312.598633
15.84 314.400482
15.86 301.075592
15.88 304.040222
15.90 308.341614
15.92 315.044647
15.94 307.349091
15.96 315.432892
15.98 300.475311
16.00 290.535248
16.02 299.165833
16.04 319.129272
16.06 323.13327
16.08 324.775452
16.10 325.484558
16.12 313.861328
16.14 318.725891
16.16 317.02536
16.18 311.575409
16.20 303.606812
16.22 308.932922
16.24 293.486237
16.26 309.262787
16.28 322.29895
16.30 321.973572
16.32 315.797546
16.34 309.9245
16.36 311.877075
16.38 304.23941
16.40 306.571259
16.42 332.182068
16.44 318.026093
16.46 304.631866
16.48 297.099335
16.50 298.390839
16.52 302.955994
16.54 307.551178
16.56 305.885651
16.58 313.08255
16.60 331.396912
16.62 347.50235
16.64 327.350739
16.66 313.929779
16.68 318.313965
16.70 325.086365
16.72 323.99942
16.74 323.69577
16.76 315.734802
16.78 333.946625
16.80 330.752014
16.82 314.141815
16.84 305.619293
16.86 314.649078
16.88 319.218689
16.90 319.635895
16.92 330.260895
16.94 330.034027
16.96 330.1297
16.98 323.618805
17.00 331.802704
17.02 331.683533
17.04 335.039703
17.06 342.335632
17.08 321.964661
17.10 326.831543
17.12 332.416077
17.14 336.019379
17.16 331.269012
17.18 325.504608
17.20 334.375793
17.22 338.05545
17.24 347.403992
17.26 337.13858
17.28 337.864197
17.30 336.573578
17.32 330.911316
17.34 336.126892
17.36 327.187958
17.38 329.394867
17.40 316.939026
17.42 338.654785
17.44 337.768677
17.46 335.951813
17.48 334.520508
17.50 356.489136
17.52 355.231903
17.54 326.652191
17.56 336.053375
17.58 331.515564
17.60 335.824646
17.62 349.260437
17.64 356.391479
17.66 356.8414
17.68 339.925842
17.70 343.237701
17.72 338.723114
17.74 349.191711
17.76 359.208344
17.78 343.883148
17.80 343.72226
17.82 353.51236
17.84 357.423157
17.86 355.027588
17.88 342.548523
17.90 341.492249
17.92 350.685455
17.94 360.235199
17.96 361.487244
17.98 365.208954
18.00 356.605408
18.02 345.250977
18.04 346.750549
18.06 361.280487
18.08 364.18985
18.10 377.817108
18.12 364.015564
18.14 357.495056
18.16 351.716278
18.18 341.570587
18.20 341.965973
18.22 351.929321
18.24 369.387939
18.26 362.683624
18.28 379.519653
18.30 362.128479
18.32 361.381287
18.34 366.344574
18.36 364.17981
18.38 369.040161
18.40 382.402435
18.42 380.451447
18.44 372.460266
18.46 368.335815
18.48 364.21582
18.50 371.16095
18.52 364.498749
18.54 363.543091
18.56 376.969879
18.58 379.413483
18.60 368.894318
18.62 371.445801
18.64 369.216553
18.66 367.614868
18.68 369.725281
18.70 380.465454
18.72 400.693665
18.74 389.989929
18.76 380.015167
18.78 367.096283
18.80 359.742523
18.82 368.260529
18.84 374.30542
18.86 389.391998
18.88 395.876648
18.90 383.167847
18.92 354.518555
18.94 387.178436
18.96 377.705841
18.98 372.16037
19.00 377.532684
19.02 398.317352
19.04 407.105316
19.06 378.725586
19.08 368.552307
19.10 364.975372
19.12 392.195587
19.14 410.173676
19.16 396.477875
19.18 395.153625
19.20 395.646271
19.22 391.957703
19.24 396.614716
19.26 395.651367
19.28 383.653931
19.30 396.433044
19.32 385.990112
19.34 398.392609
19.36 407.984528
19.38 392.484589
19.40 384.559113
19.42 393.14267
19.44 400.455261
19.46 407.244263
19.48 418.107178
19.50 405.486725
19.52 394.611969
19.54 413.249603
19.56 414.606506
19.58 407.144012
19.60 402.411438
19.62 407.737396
19.64 422.230438
19.66 424.579376
19.68 405.700745
19.70 406.142822
19.72 400.294403
19.74 408.104156
19.76 412.56015
19.78 417.558258
19.80 412.940002
19.82 416.013794
19.84 405.958466
19.86 409.020416
19.88 405.860626
19.90 419.720703
19.92 427.935974
19.94 411.615479
19.96 425.478699
19.98 433.045593
20.00 429.698944
20.02 422.94165
20.04 424.25293
20.06 428.134064
20.08 430.436401
20.10 421.104248
20.12 421.419586
20.14 434.110901
20.16 437.807037
20.18 430.417511
20.20 433.135071
20.22 435.825745
20.24 430.082916
20.26 431.937225
20.28 443.381439
20.30 442.891083
20.32 447.012115
20.34 440.786682
20.36 432.305511
20.38 440.307465
20.40 441.932098
20.42 426.036652
20.44 429.445526
20.46 438.795349
20.48 440.622314
20.50 437.505768
20.52 446.063049
20.54 434.733063
20.56 425.088623
20.58 437.417664
20.60 439.684723
20.62 434.292175
20.64 454.941437
20.66 458.214539
20.68 455.205048
20.70 451.044281
20.72 450.063568
20.74 453.08667
20.76 440.281006
20.78 439.808807
20.80 461.66098
20.82 456.111786
20.84 458.244843
20.86 469.990417
20.88 450.104248
20.90 444.871277
20.92 458.857056
20.94 461.021851
20.96 472.683929
20.98 460.475189
21.00 439.43158
21.02 445.275482
21.04 452.948364
21.06 456.086853
21.08 471.090851
21.10 467.395477
21.12 467.413391
21.14 464.832977
21.16 483.226196
21.18 486.009216
21.20 474.675018
21.22 466.156006
21.24 476.09491
21.26 486.325623
21.28 490.169434
21.30 487.36438
21.32 486.305237
21.34 487.377136
21.36 483.273102
21.38 492.109711
21.40 495.299988
21.42 504.901855
21.44 511.086395
21.46 507.421021
21.48 483.659943
21.50 483.417358
21.52 500.859558
21.54 491.335144
21.56 506.718903
21.58 504.291992
21.60 516.583191
21.62 532.680664
21.64 521.127258
21.66 511.600769
21.68 500.439545
21.70 508.765778
21.72 506.169373
21.74 507.57547
21.76 510.374268
21.78 511.154694
21.80 533.492065
21.82 524.898926
21.84 505.130981
21.86 512.080444
21.88 510.172638
21.90 507.243042
21.92 503.26059
21.94 501.735443
21.96 523.680664
21.98 530.66925
22.00 526.524475
22.02 523.927124
22.04 526.150024
22.06 514.690796
22.08 504.005096
22.10 496.853149
22.12 511.500244
22.14 511.888
22.16 508.923096
22.18 521.745361
22.20 518.899658
22.22 509.720856
22.24 523.186646
22.26 520.573059
22.28 505.108856
22.30 510.1875
22.32 499.724396
22.34 489.452545
22.36 501.138336
22.38 507.638
22.40 497.818298
22.42 497.179077
22.44 505.395599
22.46 502.220215
22.48 515.256836
22.50 516.8927
22.52 520.201599
22.54 501.750122
22.56 492.094025
22.58 508.266327
22.60 518.386414
22.62 511.078369
22.64 510.630615
22.66 512.832458
22.68 519.197876
22.70 533.219238
22.72 515.104309
22.74 503.001801
22.76 504.323883
22.78 513.751465
22.80 507.654114
22.82 508.97171
22.84 526.951294
22.86 526.320129
22.88 522.583618
22.90 522.047241
22.92 520.191833
22.94 514.540771
22.96 510.156891
22.98 513.598389
23.00 518.684509
23.02 515.644104
23.04 519.202942
23.06 512.226746
23.08 506.399567
23.10 510.034393
23.12 511.184998
23.14 529.944397
23.16 531.971375
23.18 526.738281
23.20 537.607544
23.22 546.770325
23.24 520.964111
23.26 505.329071
23.28 517.012695
23.30 539.059204
23.32 523.189392
23.34 517.581177
23.36 520.487244
23.38 540.404236
23.40 533.181458
23.42 514.069214
23.44 514.316223
23.46 522.500549
23.48 509.040009
23.50 518.389221
23.52 536.885437
23.54 540.638367
23.56 533.394836
23.58 533.935425
23.60 531.477295
23.62 540.496155
23.64 545.483154
23.66 535.122681
23.68 530.375916
23.70 525.133057
23.72 536.186951
23.74 529.436829
23.76 530.539001
23.78 543.082581
23.80 538.881165
23.82 518.626953
23.84 515.985474
23.86 525.44751
23.88 524.220398
23.90 535.334412
23.92 538.70459
23.94 527.834595
23.96 533.912781
23.98 540.050659
24.00 546.693237
24.02 535.428284
24.04 524.977356
24.06 523.956116
24.08 541.576172
24.10 534.871216
24.12 534.69751
24.14 534.000244
24.16 540.525085
24.18 530.397827
24.20 520.471619
24.22 521.533997
24.24 529.322083
24.26 535.313965
24.28 522.705383
24.30 520.674438
24.32 522.663696
24.34 541.1922
24.36 547.934387
24.38 546.576233
24.40 553.168823
24.42 547.193359
24.44 546.581299
24.46 544.706299
24.48 542.241699
24.50 539.417419
24.52 529.961243
24.54 529.731689
24.56 536.090149
24.58 542.611877
24.60 553.161377
24.62 548.046997
24.64 540.674988
24.66 531.521301
24.68 515.65918
24.70 525.876587
24.72 540.166443
24.74 559.729797
24.76 550.146423
24.78 553.657776
24.80 559.714966
24.82 553.507263
24.84 541.973206
24.86 553.170349
24.88 556.192078
24.90 534.395203
24.92 542.043213
24.94 541.821106
24.96 530.706543
24.98 542.151306
25.00 535.920715
25.02 534.366211
25.04 543.24353
25.06 550.057434
25.08 522.445496
25.10 523.943237
25.12 534.276001
25.14 537.979858
25.16 556.010315
25.18 546.032715
25.20 535.217712
25.22 535.876892
25.24 522.096252
25.26 532.660339
25.28 530.10376
25.30 537.925964
25.32 534.157288
25.34 530.130005
25.36 533.88324
25.38 541.06012
25.40 547.228699
25.42 551.525024
25.44 545.005188
25.46 548.98938
25.48 545.42688
25.50 543.198914
25.52 545.673401
25.54 550.122192
25.56 538.938232
25.58 533.957886
25.60 551.031799
25.62 559.993896
25.64 547.883179
25.66 536.502991
25.68 537.049011
25.70 539.793274
25.72 547.316406
25.74 537.764893
25.76 541.263123
25.78 543.633728
25.80 562.256592
25.82 552.095581
25.84 537.8349
25.86 538.015564
25.88 549.874146
25.90 545.382751
25.92 557.055664
25.94 550.757996
25.96 536.887634
25.98 534.629822
26.00 531.023376
26.02 555.068848
26.04 568.266846
26.06 547.291199
26.08 535.727417
26.10 532.828674
26.12 548.980469
26.14 560.065979
26.16 547.655518
26.18 555.90802
26.20 564.495544
26.22 566.779846
26.24 561.24231
26.26 547.019287
26.28 549.279968
26.30 550.657288
26.32 549.936035
26.34 543.096436
26.36 545.085815
26.38 558.939941
26.40 541.901672
26.42 531.088684
26.44 536.012756
26.46 541.505676
26.48 539.292236
26.50 536.457764
26.52 537.565857
26.54 528.61908
26.56 523.012451
26.58 542.237488
26.60 541.992798
26.62 542.636536
26.64 542.804626
26.66 549.877014
26.68 554.26532
26.70 562.654419
26.72 540.454041
26.74 520.702209
26.76 531.265076
26.78 547.813171
26.80 553.272888
26.82 535.628601
26.84 536.559937
26.86 539.563049
26.88 536.41687
26.90 536.141418
26.92 550.133789
26.94 544.327637
26.96 535.487671
26.98 533.050842
27.00 532.581299
27.02 543.134949
27.04 540.037109
27.06 541.866394
27.08 543.132019
27.10 552.00177
27.12 546.870911
27.14 545.827454
27.16 550.991577
27.18 541.625793
27.20 545.926575
27.22 534.050049
27.24 524.377563
27.26 553.911133
27.28 552.329285
27.30 530.73291
27.32 513.674194
27.34 531.146729
27.36 536.024475
27.38 541.276184
27.40 533.189453
27.42 522.711121
27.44 520.127625
27.46 543.323425
27.48 563.720032
27.50 546.594543
27.52 543.34729
27.54 536.389465
27.56 534.517761
27.58 549.31366
27.60 541.66571
27.62 526.830322
27.64 532.262756
27.66 535.447876
27.68 531.161804
27.70 522.33197
27.72 522.181824
27.74 520.138855
27.76 524.698242
27.78 521.374329
27.80 529.12854
27.82 548.787048
27.84 552.420471
27.86 541.637024
27.88 540.16687
27.90 520.051697
27.92 534.124451
27.94 540.783813
27.96 541.127869
27.98 528.53302
28.00 536.406189
28.02 545.101868
28.04 532.850769
28.06 528.383728
28.08 532.884094
28.10 536.336121
28.12 540.388794
28.14 549.543884
28.16 546.499634
28.18 535.860718
28.20 543.42688
28.22 537.921814
28.24 536.564636
28.26 538.683594
28.28 533.35498
28.30 551.502808
28.32 548.92804
28.34 544.842285
28.36 529.637207
28.38 524.899414
28.40 524.785461
28.42 530.046387
28.44 519.08252
28.46 523.000671
28.48 526.757935
28.50 530.743042
28.52 541.196655
28.54 534.045776
28.56 518.385864
28.58 520.128723
28.60 527.690186
28.62 520.986267
28.64 526.013123
28.66 524.381226
28.68 524.94873
28.70 512.42041
28.72 523.169983
28.74 519.7771
28.76 532.94519
28.78 534.693298
28.80 531.208618
28.82 524.791199
28.84 530.07782
28.86 531.478455
28.88 539.081848
28.90 525.022278
28.92 520.263184
28.94 518.650208
28.96 517.045044
28.98 525.23407
29.00 518.401917
29.02 514.532898
29.04 511.981781
29.06 517.97644
29.08 519.927124
29.10 520.425354
29.12 511.325256
29.14 521.610535
29.16 533.879761
29.18 522.299194
29.20 521.033997
29.22 510.792267
29.24 496.367188
29.26 510.845642
29.28 527.788757
29.30 517.848755
29.32 515.525574
29.34 509.26889
29.36 497.335419
29.38 503.061432
29.40 507.346283
29.42 512.177551
29.44 522.077087
29.46 522.671204
29.48 526.711853
29.50 518.535278
29.52 518.026855
29.54 509.486603
29.56 510.377319
29.58 507.167419
29.60 512.675354
29.62 513.593872
29.64 519.360168
29.66 518.046204
29.68 503.83374
29.70 511.116119
29.72 508.426422
29.74 497.068237
29.76 511.190369
29.78 511.548889
29.80 502.221069
29.82 495.793762
29.84 514.602112
29.86 520.710083
29.88 513.960999
29.90 513.615906
29.92 521.257874
29.94 516.061829
29.96 504.736786
29.98 497.936279
30.00 498.609131
30.02 495.039307
30.04 509.068481
30.06 506.864685
30.08 505.451447
30.10 507.839325
30.12 497.450958
30.14 502.866669
30.16 499.327118
30.18 508.927368
30.20 490.947876
30.22 492.371307
30.24 499.523438
30.26 498.853241
30.28 503.806244
30.30 482.335052
30.32 472.542725
30.34 483.000092
30.36 484.375946
30.38 486.64389
30.40 490.49173
30.42 492.551331
30.44 497.692383
30.46 500.653809
30.48 484.347778
30.50 486.78653
30.52 500.731171
30.54 508.063385
30.56 501.262207
30.58 497.154022
30.60 483.867889
30.62 483.104187
30.64 476.51593
30.66 475.209198
30.68 478.59613
30.70 463.721039
30.72 473.682037
30.74 459.778748
30.76 470.84314
30.78 482.283325
30.80 475.197845
30.82 485.175934
30.84 467.644684
30.86 465.033691
30.88 467.345032
30.90 487.393463
30.92 489.82605
30.94 473.910797
30.96 472.839417
30.98 489.448334
31.00 493.59729
31.02 481.506226
31.04 470.181
31.06 465.61145
31.08 472.472382
31.10 476.374603
31.12 468.229828
31.14 455.540375
31.16 462.707397
31.18 461.038269
31.20 456.46344
31.22 472.2724
31.24 469.626343
31.26 460.768402
31.28 465.898163
31.30 469.699982
31.32 465.697479
31.34 468.354187
31.36 471.421814
31.38 464.03183
31.40 446.368164
31.42 455.971741
31.44 463.393433
31.46 471.596893
31.48 468.960938
31.50 474.490723
31.52 477.606384
31.54 458.131134
31.56 451.160339
31.58 466.422577
31.60 468.297394
31.62 455.599243
31.64 457.917786
31.66 450.288177
31.68 448.236603
31.70 460.44104
31.72 459.105072
31.74 460.207672
31.76 444.728363
31.78 444.067291
31.80 459.377106
31.82 445.122162
31.84 449.407623
31.86 460.984558
31.88 462.62262
31.90 454.09845
31.92 454.213043
31.94 449.823334
31.96 431.900665
31.98 439.045288
32.00 444.076813
32.02 449.571289
32.04 462.259583
32.06 451.936829
32.08 449.975739
32.10 457.833618
32.12 449.145599
32.14 436.593964
32.16 440.390381
32.18 449.292175
32.20 452.687714
32.22 457.373779
32.24 458.588654
32.26 440.328766
32.28 441.86618
32.30 444.525055
32.32 440.545227
32.34 442.999695
32.36 422.991455
32.38 423.115997
32.40 445.674103
32.42 446.301239
32.44 438.069244
32.46 437.509064
32.48 455.114258
32.50 436.133331
32.52 425.121338
32.54 428.095795
32.56 444.424927
32.58 449.71106
32.60 442.418732
32.62 438.318939
32.64 428.973328
32.66 431.990509
32.68 435.0112
32.70 439.91391
32.72 434.519379
32.74 434.275787
32.76 442.63858
32.78 446.385284
32.80 441.404297
32.82 451.90506
32.84 443.473999
32.86 442.731995
32.88 445.118073
32.90 433.930084
32.92 438.19986
32.94 439.01712
32.96 429.931519
32.98 420.601288
33.00 433.356812
33.02 434.609619
33.04 432.737549
33.06 427.914429
33.08 420.275574
33.10 426.477234
33.12 416.543823
33.14 425.676971
33.16 428.081757
33.18 415.562561
33.20 414.653625
33.22 418.508392
33.24 421.646942
33.26 428.422577
33.28 438.357239
33.30 438.975861
33.32 432.195679
33.34 433.349854
33.36 417.617706
33.38 424.285522
33.40 425.833405
33.42 426.18808
33.44 433.598053
33.46 437.049713
33.48 430.028839
33.50 436.564514
33.52 430.30719
33.54 421.151398
33.56 426.777832
33.58 430.904114
33.60 437.99649
33.62 428.722656
33.64 409.682281
33.66 419.022644
33.68 416.171478
33.70 415.950531
33.72 425.61554
33.74 421.696991
33.76 413.861969
33.78 408.004608
33.80 419.541687
33.82 423.042664
33.84 421.432098
33.86 410.579987
33.88 420.508514
33.90 424.738647
33.92 425.398438
33.94 418.659698
33.96 424.358215
33.98 423.848877
34.00 428.103424
34.02 427.315277
34.04 434.703613
34.06 409.658813
34.08 421.232239
34.10 434.02243
34.12 424.653168
34.14 420.471527
34.16 432.316803
34.18 439.967377
34.20 423.232056
34.22 414.217773
34.24 416.58432
34.26 408.079651
34.28 415.273743
34.30 431.466187
34.32 428.39444
34.34 428.461121
34.36 436.529877
34.38 439.587585
34.40 443.713837
34.42 432.343903
34.44 434.469055
34.46 421.596436
34.48 427.876587
34.50 430.569611
34.52 447.63504
34.54 450.179993
34.56 437.987518
34.58 446.481964
34.60 449.354156
34.62 456.437012
34.64 465.888245
34.66 465.842163
34.68 471.982025
34.70 474.502136
34.72 481.864166
34.74 475.706665
34.76 477.88855
34.78 486.192017
34.80 485.501526
34.82 486.977692
34.84 475.141235
34.86 476.597534
34.88 470.332794
34.90 473.692047
34.92 469.044861
34.94 470.057251
34.96 474.808472
34.98 483.814056
35.00 480.980835
35.02 488.719849
35.04 488.601135
35.06 495.211212
35.08 485.075745
35.10 481.897552
35.12 462.195801
35.14 466.937897
35.16 466.90152
35.18 464.826721
35.20 462.86499
35.22 469.913086
35.24 477.75708
35.26 466.262115
35.28 449.913239
35.30 443.25
35.32 447.064087
35.34 432.017242
35.36 422.812866
35.38 404.719482
35.40 394.294769
35.42 403.178314
35.44 412.179535
35.46 401.517151
35.48 402.995056
35.50 407.791748
35.52 400.348602
35.54 379.718292
35.56 401.156158
35.58 385.391632
35.60 395.732574
35.62 392.293213
35.64 381.47583
35.66 384.515503
35.68 389.399994
35.70 379.131531
35.72 380.580353
35.74 379.726135
35.76 380.969635
35.78 382.456787
35.80 397.889832
35.82 391.355621
35.84 374.564484
35.86 361.843567
35.88 372.824799
35.90 362.622772
35.92 345.489807
35.94 339.082397
35.96 343.761505
35.98 355.414398
36.00 352.146973
36.02 352.319336
36.04 352.776001
36.06 350.754944
36.08 357.63681
36.10 372.385254
36.12 369.649109
36.14 358.188141
36.16 368.568298
36.18 357.125916
36.20 349.073761
36.22 361.866638
36.24 365.663879
36.26 353.728149
36.28 356.782135
36.30 342.233032
36.32 329.062622
36.34 334.594788
36.36 339.791107
36.38 334.479767
36.40 340.151184
36.42 346.347351
36.44 358.60675
36.46 349.134613
36.48 346.928009
36.50 351.299133
36.52 352.52887
36.54 350.304962
36.56 366.11795
36.58 360.951508
36.60 342.941498
36.62 342.444214
36.64 347.344696
36.66 340.42215
36.68 347.348602
36.70 347.395874
36.72 351.594696
36.74 362.051605
36.76 344.641693
36.78 337.904938
36.80 348.64151
36.82 359.674591
36.84 351.813385
36.86 339.993103
36.88 328.810272
36.90 340.742676
36.92 338.721191
36.94 341.33548
36.96 340.499878
36.98 352.373627
37.00 349.968872
37.02 330.844269
37.04 330.023773
37.06 338.586578
37.08 340.727081
37.10 333.278595
37.12 324.792419
37.14 315.722137
37.16 317.619995
37.18 332.93515
37.20 331.34436
37.22 328.458862
37.24 320.37323
37.26 325.714539
37.28 330.538544
37.30 332.789642
37.32 315.415985
37.34 337.519958
37.36 324.482635
37.38 325.543213
37.40 321.029144
37.42 311.249786
37.44 303.881622
37.46 315.984711
37.48 331.615875
37.50 333.635284
37.52 321.397369
37.54 322.651733
37.56 319.694763
37.58 323.668915
37.60 311.980896
37.62 342.360565
37.64 334.332062
37.66 318.54361
37.68 324.450439
37.70 323.186523
37.72 325.8461
37.74 328.005615
37.76 337.773956
37.78 326.687775
37.80 311.770172
37.82 316.438721
37.84 319.137024
37.86 334.499115
37.88 350.593384
37.90 342.983032
37.92 332.602051
37.94 322.721375
37.96 337.249268
37.98 347.578766
38.00 330.873993
38.02 330.798462
38.04 329.150269
38.06 318.445892
38.08 308.523743
38.10 318.986877
38.12 317.851654
38.14 314.103088
38.16 308.267242
38.18 318.248352
38.20 328.974701
38.22 314.309296
38.24 318.141327
38.26 332.908997
38.28 332.022888
38.30 327.671326
38.32 311.938019
38.34 307.399475
38.36 322.586029
38.38 320.211823
38.40 317.151154
38.42 310.018372
38.44 319.806763
38.46 326.934479
38.48 315.594391
38.50 313.185059
38.52 325.723206
38.54 328.993774
38.56 322.565002
38.58 312.231567
38.60 314.960938
38.62 313.565979
38.64 313.094055
38.66 309.368134
38.68 302.263031
38.70 301.833496
38.72 307.246887
38.74 298.657532
38.76 286.879517
38.78 308.729462
38.80 305.031219
38.82 296.897858
38.84 297.079926
38.86 305.108429
38.88 308.081665
38.90 308.389496
38.92 300.517883
38.94 300.04953
38.96 281.050568
38.98 277.96283
39.00 275.027893
39.02 267.448822
39.04 287.147003
39.06 293.098175
39.08 282.962738
39.10 288.55722
39.12 290.636749
39.14 288.133362
39.16 284.583435
39.18 291.061432
39.20 276.385284
39.22 281.42337
39.24 290.310822
39.26 285.636292
39.28 290.510925
39.30 286.494781
39.32 287.285675
39.34 288.676422
39.36 282.971924
39.38 285.864838
39.40 291.491608
39.42 275.306305
39.44 291.756104
39.46 285.000275
39.48 267.537354
39.50 278.57254
39.52 290.510895
39.54 287.410492
39.56 275.945587
39.58 278.809204
39.60 280.978363
39.62 270.546112
39.64 268.154938
39.66 281.857178
39.68 277.536133
39.70 277.071136
39.72 281.460571
39.74 265.627686
39.76 259.440399
39.78 271.741211
39.80 275.876007
39.82 269.973572
39.84 269.729034
39.86 279.125092
39.88 270.878326
39.90 265.598816
39.92 257.830017
39.94 275.349487
39.96 249.759369
39.98 266.990448
40.00 260.492004
