!@!!GADDS PLOTSO FILE: Chi integration type
!@!!Title/SampleName: ML_MAPbX3_chem2
!@!!User: NREL
!@!!Site: NREL SERF C211; SN 2510
!@!!Frame: C:\frames\rbelisle\MLProject\081022_MLProject_000_002.gfrm
!@!!Wavelengths    1.54184   1.54056   1.54439
!@!!Frame angles: 2Theta: 28.000 Omega: 5.000 Phi: 0.000 Chi: 90.000
!@!!Integration range: 2Theta: 10.000 to 40.000  Gamma: -100.000 to -80.000
!@!!Integration method: bin normalized
!@!N
!@!SS
!@!M
!@!L 0.0 0.0 0.0 0.0
!@!XDegrees
!@!YCounts
10.00 125.787094
10.02 120.053131
10.04 97.524529
10.06 107.062927
10.08 114.459328
10.10 115.775917
10.12 109.476265
10.14 105.930435
10.16 108.074539
10.18 128.515503
10.20 120.282921
10.22 115.691605
10.24 130.365524
10.26 138.220566
10.28 127.089195
10.30 116.991882
10.32 120.245651
10.34 118.527802
10.36 115.171593
10.38 109.360275
10.40 112.888306
10.42 111.054825
10.44 126.172691
10.46 133.989517
10.48 135.407898
10.50 128.784622
10.52 128.03186
10.54 119.412025
10.56 121.237999
10.58 115.372169
10.60 125.765831
10.62 131.0793
10.64 127.023994
10.66 113.068039
10.68 118.743065
10.70 111.167343
10.72 130.428589
10.74 128.518051
10.76 129.028625
10.78 129.499146
10.80 147.813232
10.82 144.845856
10.84 142.521469
10.86 132.585236
10.88 129.92186
10.90 126.80629
10.92 135.693741
10.94 134.433334
10.96 129.958481
10.98 134.042145
11.00 144.389816
11.02 143.358978
11.04 132.277573
11.06 135.747086
11.08 139.052917
11.10 141.275085
11.12 124.87059
11.14 138.824203
11.16 147.932785
11.18 124.926086
11.20 109.409775
11.22 124.092285
11.24 132.326401
11.26 146.319763
11.28 141.109833
11.30 130.355042
11.32 136.847305
11.34 143.642548
11.36 168.717987
11.38 147.303146
11.40 133.698059
11.42 129.197769
11.44 133.188583
11.46 150.829605
11.48 137.373276
11.50 135.030975
11.52 148.783401
11.54 147.491882
11.56 140.860916
11.58 131.035858
11.60 135.724167
11.62 145.962906
11.64 152.465454
11.66 147.328049
11.68 153.226807
11.70 144.347046
11.72 170.198776
11.74 165.00386
11.76 150.070435
11.78 146.855133
11.80 152.0103
11.82 137.345993
11.84 143.75
11.86 169.800919
11.88 148.671387
11.90 162.168274
11.92 163.994888
11.94 157.774719
11.96 153.928604
11.98 157.851364
12.00 154.423477
12.02 152.961609
12.04 140.338226
12.06 144.764862
12.08 156.212524
12.10 167.873962
12.12 155.456604
12.14 151.549927
12.16 168.827866
12.18 164.165253
12.20 168.670441
12.22 180.649475
12.24 183.438934
12.26 186.721039
12.28 172.289398
12.30 166.871368
12.32 172.228928
12.34 191.286255
12.36 193.540482
12.38 185.583969
12.40 185.028595
12.42 196.371872
12.44 184.6763
12.46 195.66394
12.48 188.199432
12.50 193.208221
12.52 197.468903
12.54 198.500229
12.56 193.151962
12.58 197.146576
12.60 204.338654
12.62 206.621979
12.64 208.371338
12.66 221.475845
12.68 189.573578
12.70 197.816238
12.72 194.255234
12.74 183.268784
12.76 194.44989
12.78 186.779739
12.80 193.925064
12.82 197.329971
12.84 198.273712
12.86 179.684402
12.88 190.846024
12.90 191.01358
12.92 193.001831
12.94 186.501938
12.96 181.013031
12.98 199.702515
13.00 188.341965
13.02 186.023651
13.04 181.977997
13.06 197.377548
13.08 193.159592
13.10 176.958023
13.12 188.483185
13.14 182.7258
13.16 183.409225
13.18 192.188477
13.20 197.602631
13.22 183.363068
13.24 170.865234
13.26 194.175934
13.28 200.319519
13.30 199.660995
13.32 201.37709
13.34 200.714951
13.36 199.772903
13.38 186.10582
13.40 183.834824
13.42 206.91626
13.44 193.680038
13.46 183.207382
13.48 187.772095
13.50 193.519409
13.52 206.706573
13.54 204.872955
13.56 199.073349
13.58 185.601379
13.60 205.341003
13.62 209.421234
13.64 202.90831
13.66 204.794601
13.68 198.030334
13.70 209.714813
13.72 211.344849
13.74 219.620575
13.76 195.423218
13.78 200.202499
13.80 189.478134
13.82 186.706314
13.84 191.285324
13.86 197.001373
13.88 198.542328
13.90 204.721603
13.92 199.596649
13.94 200.459488
13.96 194.808182
13.98 206.375809
14.00 205.421219
14.02 199.052933
14.04 202.300751
14.06 203.990768
14.08 195.165909
14.10 200.639191
14.12 203.279648
14.14 211.035126
14.16 196.528854
14.18 219.699875
14.20 210.778641
14.22 203.926407
14.24 196.725677
14.26 198.017639
14.28 201.362579
14.30 206.565994
14.32 214.004288
14.34 208.106567
14.36 210.509857
14.38 220.029251
14.40 214.840683
14.42 217.265152
14.44 215.062958
14.46 236.484253
14.48 234.36145
14.50 245.796051
14.52 255.27269
14.54 252.432312
14.56 246.601776
14.58 244.812378
14.60 252.947189
14.62 249.717224
14.64 260.913544
14.66 274.295715
14.68 297.305389
14.70 308.596771
14.72 319.876587
14.74 329.713623
14.76 352.099457
14.78 359.527405
14.80 366.820221
14.82 382.629456
14.84 399.026337
14.86 429.245667
14.88 470.344391
14.90 507.227478
14.92 528.14209
14.94 574.380554
14.96 644.488953
14.98 650.092651
15.00 689.557495
15.02 762.084229
15.04 841.558594
15.06 886.88501
15.08 967.676758
15.10 1024.856445
15.12 1096.678711
15.14 1220.096436
15.16 1328.672363
15.18 1389.772461
15.20 1508.918335
15.22 1591.47937
15.24 1686.239258
15.26 1729.039063
15.28 1789.013184
15.30 1797.940796
15.32 1809.704712
15.34 1786.661499
15.36 1745.565796
15.38 1657.289185
15.40 1536.151123
15.42 1436.371826
15.44 1316.657959
15.46 1166.355225
15.48 1052.051758
15.50 935.702881
15.52 812.766785
15.54 755.511963
15.56 712.342773
15.58 639.703247
15.60 551.945068
15.62 494.018341
15.64 454.753937
15.66 467.549408
15.68 433.676025
15.70 412.317688
15.72 397.373413
15.74 393.523041
15.76 374.157349
15.78 361.033661
15.80 333.870667
15.82 334.145416
15.84 324.963531
15.86 296.142334
15.88 294.491638
15.90 287.656708
15.92 289.809937
15.94 292.444183
15.96 290.130035
15.98 282.26297
16.00 274.266632
16.02 267.295807
16.04 253.679642
16.06 243.631378
16.08 232.944885
16.10 226.134506
16.12 237.944824
16.14 243.7668
16.16 236.978958
16.18 225.992828
16.20 224.826904
16.22 219.896225
16.24 221.756607
16.26 212.144592
16.28 207.289139
16.30 203.23085
16.32 205.493698
16.34 206.833466
16.36 204.522964
16.38 209.208313
16.40 221.156509
16.42 211.935577
16.44 204.538437
16.46 214.618561
16.48 208.800034
16.50 218.438431
16.52 202.764709
16.54 200.482635
16.56 205.296707
16.58 210.665451
16.60 197.681
16.62 196.910538
16.64 211.069717
16.66 206.80394
16.68 196.850006
16.70 198.778152
16.72 201.539597
16.74 194.512283
16.76 205.416489
16.78 187.897995
16.80 194.927307
16.82 213.435547
16.84 207.774292
16.86 213.485474
16.88 207.33287
16.90 197.507797
16.92 189.461609
16.94 206.212875
16.96 218.99588
16.98 215.81076
17.00 204.278748
17.02 196.950272
17.04 198.932953
17.06 195.66066
17.08 198.829956
17.10 193.837799
17.12 194.838074
17.14 198.242966
17.16 196.276276
17.18 201.455292
17.20 212.134293
17.22 213.457657
17.24 220.712463
17.26 217.263718
17.28 200.528473
17.30 204.026566
17.32 211.808731
17.34 211.48642
17.36 211.856308
17.38 201.149261
17.40 211.744537
17.42 202.900131
17.44 211.898422
17.46 209.802643
17.48 204.913177
17.50 209.831467
17.52 205.780884
17.54 210.055695
17.56 214.134048
17.58 210.478058
17.60 201.05043
17.62 198.228119
17.64 218.202316
17.66 214.59906
17.68 209.397537
17.70 194.955368
17.72 187.869034
17.74 210.042847
17.76 227.698441
17.78 214.625153
17.80 225.476563
17.82 226.638977
17.84 227.108261
17.86 225.998093
17.88 214.95285
17.90 204.805099
17.92 215.158127
17.94 221.152481
17.96 201.667297
17.98 216.960815
18.00 215.338516
18.02 203.293167
18.04 186.978271
18.06 195.967346
18.08 216.462021
18.10 225.400452
18.12 200.916519
18.14 203.097855
18.16 214.646225
18.18 211.108002
18.20 225.894592
18.22 220.793243
18.24 217.777786
18.26 217.609024
18.28 214.130157
18.30 218.621048
18.32 216.592377
18.34 222.395462
18.36 220.717758
18.38 240.518066
18.40 237.340302
18.42 231.868927
18.44 226.701569
18.46 215.570206
18.48 232.971725
18.50 229.096161
18.52 226.184143
18.54 226.675339
18.56 224.106094
18.58 227.290268
18.60 217.992508
18.62 217.676376
18.64 231.536621
18.66 238.428818
18.68 224.861511
18.70 233.026215
18.72 219.224838
18.74 214.989456
18.76 226.250854
18.78 233.62735
18.80 222.046478
18.82 219.168243
18.84 228.736923
18.86 236.319443
18.88 246.643967
18.90 241.163773
18.92 231.439896
18.94 235.368195
18.96 237.775894
18.98 232.321884
19.00 234.349899
19.02 242.938843
19.04 243.918427
19.06 248.712036
19.08 240.217239
19.10 221.269775
19.12 224.681534
19.14 234.60849
19.16 250.699951
19.18 232.294968
19.20 226.231461
19.22 231.715775
19.24 258.248596
19.26 261.506195
19.28 243.753876
19.30 225.100479
19.32 240.537415
19.34 266.000763
19.36 251.751785
19.38 246.449829
19.40 248.923187
19.42 250.039001
19.44 250.47525
19.46 235.046417
19.48 253.573105
19.50 269.415955
19.52 246.618057
19.54 234.386871
19.56 255.09285
19.58 262.526428
19.60 260.520081
19.62 262.862335
19.64 270.24234
19.66 269.11441
19.68 265.149353
19.70 253.85701
19.72 260.788208
19.74 246.551941
19.76 253.196701
19.78 244.333115
19.80 251.440628
19.82 250.608551
19.84 253.971619
19.86 264.335358
19.88 281.101715
19.90 273.973969
19.92 260.517975
19.94 272.760925
19.96 251.563995
19.98 248.918777
20.00 254.040848
20.02 255.934769
20.04 265.720123
20.06 262.309448
20.08 265.833618
20.10 277.848572
20.12 274.087402
20.14 271.516174
20.16 269.677734
20.18 274.844788
20.20 268.580658
20.22 257.048645
20.24 257.121948
20.26 270.45755
20.28 266.050964
20.30 269.156372
20.32 276.303802
20.34 275.57373
20.36 263.536377
20.38 265.058014
20.40 273.439087
20.42 278.761139
20.44 282.690674
20.46 277.437561
20.48 279.89444
20.50 263.403687
20.52 278.271729
20.54 263.996185
20.56 266.95163
20.58 284.915283
20.60 292.849548
20.62 295.155426
20.64 281.601654
20.66 279.424469
20.68 295.108795
20.70 281.433289
20.72 289.49765
20.74 288.891449
20.76 278.882172
20.78 291.043579
20.80 283.097809
20.82 284.533234
20.84 293.026459
20.86 290.946747
20.88 287.975952
20.90 290.342773
20.92 292.818787
20.94 286.212921
20.96 271.993042
20.98 288.527618
21.00 299.971039
21.02 280.111481
21.04 277.913696
21.06 288.694611
21.08 271.533691
21.10 296.903748
21.12 286.422546
21.14 303.069794
21.16 311.148926
21.18 312.858337
21.20 302.740906
21.22 290.827393
21.24 290.471802
21.26 291.540955
21.28 291.142517
21.30 294.960754
21.32 292.214783
21.34 287.107117
21.36 290.934021
21.38 301.355865
21.40 304.520172
21.42 305.166992
21.44 311.48941
21.46 298.658173
21.48 302.517212
21.50 308.261414
21.52 309.308472
21.54 311.543365
21.56 322.431122
21.58 307.205933
21.60 306.464142
21.62 318.07251
21.64 328.02063
21.66 335.667633
21.68 340.291382
21.70 341.633698
21.72 328.809692
21.74 337.426971
21.76 332.255493
21.78 335.928619
21.80 324.346222
21.82 315.883179
21.84 323.490997
21.86 323.50235
21.88 319.362823
21.90 330.785004
21.92 316.903442
21.94 329.373535
21.96 312.540283
21.98 321.45047
22.00 313.692322
22.02 311.244873
22.04 329.338562
22.06 324.574799
22.08 312.960785
22.10 317.92099
22.12 325.278198
22.14 312.293152
22.16 306.416107
22.18 315.256897
22.20 324.430511
22.22 343.832703
22.24 339.195831
22.26 331.393158
22.28 316.180908
22.30 307.585175
22.32 312.235474
22.34 327.918152
22.36 319.472656
22.38 327.235809
22.40 316.4823
22.42 311.686523
22.44 315.690887
22.46 325.414093
22.48 324.478516
22.50 339.583923
22.52 333.819031
22.54 322.203156
22.56 328.487885
22.58 342.195496
22.60 330.642334
22.62 330.799194
22.64 320.304291
22.66 313.038696
22.68 323.868225
22.70 313.964691
22.72 325.059753
22.74 330.751373
22.76 333.51062
22.78 337.077118
22.80 334.067841
22.82 333.786835
22.84 330.640503
22.86 320.424713
22.88 329.55661
22.90 336.828766
22.92 333.715302
22.94 314.459808
22.96 342.012299
22.98 348.835693
23.00 339.17215
23.02 335.761322
23.04 330.435211
23.06 330.891998
23.08 325.470337
23.10 319.756622
23.12 323.061523
23.14 324.403564
23.16 317.361572
23.18 320.099213
23.20 332.362946
23.22 351.927032
23.24 348.628204
23.26 330.745392
23.28 337.147125
23.30 331.764709
23.32 335.797943
23.34 327.042023
23.36 315.17337
23.38 311.449768
23.40 342.863678
23.42 334.283325
23.44 328.868073
23.46 324.165985
23.48 333.179535
23.50 347.255646
23.52 337.664337
23.54 350.222717
23.56 346.840149
23.58 349.113861
23.60 343.494781
23.62 332.969727
23.64 346.833405
23.66 331.51886
23.68 340.95578
23.70 337.408875
23.72 333.694641
23.74 331.2164
23.76 349.918823
23.78 344.466156
23.80 345.760803
23.82 344.073944
23.84 349.880493
23.86 335.693695
23.88 332.742493
23.90 337.726776
23.92 339.663239
23.94 360.096527
23.96 356.53299
23.98 346.940948
24.00 348.116821
24.02 348.24881
24.04 347.019501
24.06 357.365417
24.08 355.090912
24.10 337.909912
24.12 341.514709
24.14 354.423767
24.16 344.792664
24.18 342.060028
24.20 346.105499
24.22 344.466492
24.24 345.872284
24.26 348.665253
24.28 356.555939
24.30 364.460327
24.32 363.517914
24.34 336.786224
24.36 346.347076
24.38 349.954742
24.40 354.913696
24.42 356.896973
24.44 353.379456
24.46 352.576599
24.48 351.23407
24.50 356.747284
24.52 352.788757
24.54 332.408844
24.56 338.652496
24.58 334.482452
24.60 341.37085
24.62 334.880859
24.64 340.860718
24.66 356.019684
24.68 347.846863
24.70 341.008423
24.72 347.427185
24.74 352.532928
24.76 340.650238
24.78 345.041962
24.80 339.207184
24.82 338.940216
24.84 348.53537
24.86 344.859955
24.88 356.627625
24.90 362.360413
24.92 342.663177
24.94 348.904114
24.96 341.314514
24.98 345.645874
25.00 351.704285
25.02 349.316864
25.04 350.262085
25.06 358.625031
25.08 362.710022
25.10 370.267395
25.12 372.665833
25.14 361.385406
25.16 357.904663
25.18 349.88739
25.20 366.85907
25.22 369.282806
25.24 341.284912
25.26 337.289032
25.28 344.356201
25.30 347.867767
25.32 350.125916
25.34 344.719299
25.36 353.059418
25.38 339.083679
25.40 336.958954
25.42 347.003326
25.44 351.206726
25.46 351.934601
25.48 340.726837
25.50 350.54541
25.52 348.226837
25.54 362.447266
25.56 345.661377
25.58 336.292999
25.60 353.874298
25.62 335.471252
25.64 342.743195
25.66 341.887115
25.68 359.479034
25.70 361.297119
25.72 353.482788
25.74 333.934875
25.76 333.520264
25.78 339.867676
25.80 335.473297
25.82 338.037689
25.84 345.416901
25.86 348.277344
25.88 349.608215
25.90 341.099915
25.92 348.217651
25.94 345.148895
25.96 352.691376
25.98 343.347046
26.00 338.942383
26.02 341.525421
26.04 335.060364
26.06 325.75293
26.08 334.956024
26.10 348.082825
26.12 344.940674
26.14 348.185883
26.16 349.286346
26.18 348.691833
26.20 353.194794
26.22 349.241058
26.24 349.725006
26.26 343.745972
26.28 341.438019
26.30 343.053223
26.32 364.959137
26.34 365.23056
26.36 347.186584
26.38 345.820404
26.40 344.411621
26.42 357.510437
26.44 346.148529
26.46 332.821747
26.48 333.966278
26.50 341.701508
26.52 350.754974
26.54 344.801483
26.56 327.659698
26.58 340.632294
26.60 352.326538
26.62 349.521179
26.64 357.733948
26.66 348.662537
26.68 344.720703
26.70 354.718964
26.72 354.388153
26.74 334.272034
26.76 330.584747
26.78 339.558777
26.80 344.854767
26.82 341.494385
26.84 346.008972
26.86 344.575439
26.88 346.061127
26.90 341.948364
26.92 341.896545
26.94 321.279053
26.96 333.356995
26.98 352.240509
27.00 354.165649
27.02 354.338776
27.04 341.225891
27.06 338.964294
27.08 346.337555
27.10 343.729553
27.12 348.134827
27.14 333.517517
27.16 337.546295
27.18 328.354218
27.20 333.249176
27.22 343.655273
27.24 340.539276
27.26 354.110779
27.28 341.238159
27.30 338.322662
27.32 341.253113
27.34 345.065857
27.36 350.065247
27.38 344.213745
27.40 339.321045
27.42 342.543793
27.44 330.590668
27.46 333.913574
27.48 351.229767
27.50 351.025085
27.52 348.737213
27.54 347.213104
27.56 335.66272
27.58 333.637177
27.60 345.006134
27.62 335.397888
27.64 321.781006
27.66 337.888092
27.68 324.998016
27.70 340.925812
27.72 340.232788
27.74 340.1203
27.76 343.103485
27.78 351.707184
27.80 345.817871
27.82 327.822174
27.84 329.137604
27.86 343.820007
27.88 347.792206
27.90 347.422791
27.92 349.79303
27.94 348.84491
27.96 361.168274
27.98 346.758453
28.00 344.205933
28.02 328.704193
28.04 324.390869
28.06 329.267151
28.08 351.256439
28.10 331.824951
28.12 339.346405
28.14 333.263611
28.16 318.991638
28.18 320.367279
28.20 330.798828
28.22 331.937561
28.24 331.290802
28.26 336.189514
28.28 326.847351
28.30 334.561066
28.32 332.478943
28.34 343.200714
28.36 345.753571
28.38 335.580872
28.40 344.429138
28.42 342.408844
28.44 324.908478
28.46 339.682312
28.48 333.184021
28.50 336.671204
28.52 340.89505
28.54 330.619202
28.56 340.250122
28.58 342.970123
28.60 345.961548
28.62 338.40918
28.64 337.677734
28.66 340.624725
28.68 337.924255
28.70 340.28714
28.72 336.111115
28.74 326.829559
28.76 336.192566
28.78 348.931671
28.80 341.577606
28.82 329.418732
28.84 340.454498
28.86 339.451935
28.88 335.177582
28.90 336.260376
28.92 350.163879
28.94 349.832886
28.96 332.276276
28.98 327.374146
29.00 311.045013
29.02 325.767029
29.04 330.43515
29.06 340.270508
29.08 328.725739
29.10 332.148224
29.12 329.271606
29.14 324.120178
29.16 333.341644
29.18 337.64624
29.20 340.581696
29.22 329.491364
29.24 321.938202
29.26 337.441559
29.28 342.466766
29.30 330.611145
29.32 326.990936
29.34 322.998474
29.36 329.563049
29.38 344.517883
29.40 355.658691
29.42 344.17276
29.44 340.2164
29.46 337.17691
29.48 333.256653
29.50 332.169037
29.52 350.320953
29.54 351.222778
29.56 344.371521
29.58 329.748352
29.60 331.308472
29.62 335.997711
29.64 337.487152
29.66 338.146027
29.68 337.146301
29.70 341.23877
29.72 350.508087
29.74 347.105377
29.76 341.715027
29.78 327.920197
29.80 337.470764
29.82 325.579773
29.84 335.102173
29.86 340.98877
29.88 345.49649
29.90 339.171173
29.92 349.420807
29.94 338.110474
29.96 331.60141
29.98 348.216156
30.00 348.334229
30.02 347.724701
30.04 341.988739
30.06 341.300995
30.08 345.265503
30.10 367.100311
30.12 358.826904
30.14 364.238983
30.16 365.676666
30.18 365.200317
30.20 362.700745
30.22 356.699341
30.24 355.221161
30.26 353.055084
30.28 360.981659
30.30 366.185455
30.32 373.919373
30.34 363.761536
30.36 373.809052
30.38 369.044739
30.40 372.239685
30.42 372.484222
30.44 360.285339
30.46 372.460693
30.48 386.290314
30.50 385.402405
30.52 388.844696
30.54 401.131409
30.56 420.580719
30.58 403.276611
30.60 391.775726
30.62 405.340607
30.64 443.47403
30.66 453.022491
30.68 450.492828
30.70 466.54126
30.72 479.533173
30.74 493.62146
30.76 534.968811
30.78 562.448975
30.80 601.212769
30.82 658.367126
30.84 670.983215
30.86 686.718018
30.88 704.368591
30.90 733.894409
30.92 732.35614
30.94 753.096863
30.96 750.017639
30.98 714.702454
31.00 698.90741
31.02 713.030273
31.04 681.213806
31.06 653.884949
31.08 622.777466
31.10 571.629578
31.12 526.553406
31.14 511.017426
31.16 495.79425
31.18 458.262177
31.20 441.932922
31.22 427.705017
31.24 398.503418
31.26 380.002838
31.28 379.29895
31.30 382.41037
31.32 381.884186
31.34 380.584442
31.36 359.184753
31.38 355.167267
31.40 360.927673
31.42 354.710968
31.44 350.175873
31.46 327.711182
31.48 320.217468
31.50 324.355194
31.52 332.871185
31.54 339.424683
31.56 339.936768
31.58 320.021027
31.60 315.594452
31.62 318.292084
31.64 319.303406
31.66 319.821838
31.68 315.43457
31.70 315.229248
31.72 322.986969
31.74 327.218445
31.76 323.840759
31.78 318.884521
31.80 317.447113
31.82 317.74942
31.84 315.17923
31.86 316.770538
31.88 311.759491
31.90 309.897827
31.92 311.20575
31.94 312.598053
31.96 331.539429
31.98 320.110168
32.00 302.226318
32.02 301.930084
32.04 306.230347
32.06 300.786804
32.08 302.698975
32.10 301.309662
32.12 303.738159
32.14 309.888397
32.16 316.567078
32.18 315.345398
32.20 310.23172
32.22 306.67691
32.24 307.509064
32.26 301.450989
32.28 299.199799
32.30 302.807373
32.32 302.865479
32.34 315.346436
32.36 297.03894
32.38 289.09082
32.40 288.679718
32.42 289.489594
32.44 288.972717
32.46 284.668823
32.48 286.375885
32.50 292.759735
32.52 301.341064
32.54 285.513153
32.56 286.018127
32.58 293.541534
32.60 294.706146
32.62 294.325287
32.64 285.923676
32.66 276.254059
32.68 282.705841
32.70 291.811798
32.72 284.023376
32.74 288.08316
32.76 296.401459
32.78 280.589142
32.80 278.23465
32.82 277.972931
32.84 277.108521
32.86 295.248718
32.88 288.570496
32.90 291.481934
32.92 282.526703
32.94 279.459534
32.96 276.186188
32.98 276.23761
33.00 298.761139
33.02 302.018707
33.04 281.825409
33.06 280.604889
33.08 274.048248
33.10 273.851654
33.12 284.689331
33.14 297.404053
33.16 279.034546
33.18 274.447388
33.20 291.849335
33.22 294.931427
33.24 280.578491
33.26 279.181641
33.28 264.496704
33.30 274.907593
33.32 289.36377
33.34 277.731201
33.36 271.086884
33.38 268.455139
33.40 280.740875
33.42 280.537109
33.44 280.224915
33.46 270.375488
33.48 272.926117
33.50 273.85141
33.52 278.157898
33.54 276.961914
33.56 257.800262
33.58 255.322922
33.60 269.408417
33.62 278.638275
33.64 269.772369
33.66 266.665741
33.68 265.623199
33.70 273.849152
33.72 272.089874
33.74 259.484924
33.76 264.428925
33.78 264.278259
33.80 265.774841
33.82 264.163391
33.84 265.857513
33.86 261.257416
33.88 265.119751
33.90 269.114655
33.92 265.662323
33.94 258.553619
33.96 269.607574
33.98 281.50824
34.00 269.14093
34.02 261.957672
34.04 270.36377
34.06 282.717255
34.08 282.688904
34.10 272.523285
34.12 263.396973
34.14 259.197174
34.16 268.365753
34.18 276.981171
34.20 265.595245
34.22 258.006622
34.24 259.177185
34.26 252.545944
34.28 253.468857
34.30 262.988617
34.32 258.629456
34.34 246.666718
34.36 254.218643
34.38 254.928986
34.40 247.203918
34.42 247.073608
34.44 251.305786
34.46 256.1763
34.48 256.60437
34.50 261.623627
34.52 267.354797
34.54 255.670166
34.56 246.964233
34.58 251.291351
34.60 250.980148
34.62 255.14682
34.64 255.271851
34.66 258.480438
34.68 254.932556
34.70 262.428955
34.72 256.134613
34.74 258.90097
34.76 261.911652
34.78 272.49353
34.80 266.168274
34.82 256.86795
34.84 258.177673
34.86 249.896057
34.88 245.900879
34.90 246.35704
34.92 250.731033
34.94 254.459534
34.96 257.287598
34.98 254.589249
35.00 245.766327
35.02 246.970123
35.04 248.103088
35.06 245.062378
35.08 237.134552
35.10 238.583145
35.12 249.989441
35.14 252.776031
35.16 241.748383
35.18 239.442886
35.20 238.673721
35.22 237.165588
35.24 241.709778
35.26 232.629593
35.28 229.300888
35.30 246.909958
35.32 231.560135
35.34 234.127823
35.36 229.661102
35.38 232.586823
35.40 248.463882
35.42 249.049438
35.44 229.286835
35.46 236.183029
35.48 235.194107
35.50 232.451706
35.52 227.052429
35.54 229.496918
35.56 234.650528
35.58 232.063507
35.60 233.245911
35.62 225.939713
35.64 228.239319
35.66 225.031479
35.68 220.467041
35.70 230.564529
35.72 226.616592
35.74 225.24408
35.76 229.767578
35.78 231.281754
35.80 228.011841
35.82 229.511581
35.84 232.043304
35.86 226.274796
35.88 223.868774
35.90 226.88002
35.92 225.838028
35.94 223.194992
35.96 225.593582
35.98 224.878662
36.00 225.122086
36.02 224.924149
36.04 230.167038
36.06 230.048004
36.08 237.374741
36.10 222.702103
36.12 220.025742
36.14 220.811188
36.16 218.308044
36.18 223.685699
36.20 219.717178
36.22 221.50589
36.24 219.615784
36.26 222.907547
36.28 218.77916
36.30 219.459106
36.32 221.333389
36.34 224.030884
36.36 212.894318
36.38 223.001862
36.40 209.071274
36.42 205.825119
36.44 212.62471
36.46 211.99736
36.48 208.760834
36.50 214.619232
36.52 209.427444
36.54 210.000717
36.56 221.011429
36.58 220.06102
36.60 217.379868
36.62 211.416107
36.64 212.769196
36.66 217.070313
36.68 213.999878
36.70 205.127472
36.72 206.287308
36.74 197.340759
36.76 197.470734
36.78 203.37146
36.80 201.17601
36.82 207.032303
36.84 208.970276
36.86 212.498337
36.88 216.619385
36.90 219.141068
36.92 216.025574
36.94 211.963409
36.96 209.426147
36.98 203.597916
37.00 196.261063
37.02 186.950256
37.04 198.003616
37.06 193.926392
37.08 209.405075
37.10 204.421112
37.12 208.430222
37.14 206.972656
37.16 198.662125
37.18 197.241791
37.20 207.341629
37.22 203.161957
37.24 195.875565
37.26 199.451569
37.28 201.608902
37.30 199.517593
37.32 195.828949
37.34 196.416473
37.36 187.637466
37.38 196.705902
37.40 197.640137
37.42 198.021393
37.44 193.824295
37.46 202.98378
37.48 195.15535
37.50 192.132248
37.52 207.487411
37.54 203.364609
37.56 194.850922
37.58 189.318375
37.60 194.943253
37.62 200.277756
37.64 195.608871
37.66 198.77562
37.68 206.088242
37.70 202.855042
37.72 196.792923
37.74 193.468781
37.76 193.837387
37.78 192.876389
37.80 194.381409
37.82 204.371582
37.84 201.403839
37.86 197.573898
37.88 190.453842
37.90 203.116959
37.92 205.286179
37.94 206.555038
37.96 205.190018
37.98 195.926025
38.00 192.789963
38.02 192.728729
38.04 192.528214
38.06 196.128433
38.08 202.968231
38.10 203.05014
38.12 195.592163
38.14 200.548065
38.16 201.244324
38.18 203.460953
38.20 210.133667
38.22 213.993164
38.24 197.645996
38.26 197.259979
38.28 197.410675
38.30 195.064224
38.32 188.40863
38.34 187.24202
38.36 192.594254
38.38 198.449753
38.40 188.937286
38.42 192.097076
38.44 193.800156
38.46 189.451294
38.48 189.128311
38.50 197.20932
38.52 192.122025
38.54 192.021713
38.56 187.156769
38.58 197.350128
38.60 202.486725
38.62 190.032822
38.64 192.421173
38.66 188.533783
38.68 182.569046
38.70 182.904282
38.72 185.766281
38.74 189.179977
38.76 184.155396
38.78 184.766541
38.80 190.506348
38.82 185.954956
38.84 179.299789
38.86 180.667068
38.88 189.23233
38.90 181.750656
38.92 184.603363
38.94 186.154388
38.96 183.492233
38.98 179.790451
39.00 181.532791
39.02 183.791077
39.04 187.527588
39.06 195.115372
39.08 182.369568
39.10 181.83313
39.12 176.37706
39.14 175.491592
39.16 183.00853
39.18 183.700409
39.20 186.361328
39.22 185.334473
39.24 180.506531
39.26 175.229645
39.28 179.639938
39.30 168.681503
39.32 178.152878
39.34 181.495636
39.36 178.867279
39.38 176.85788
39.40 185.422012
39.42 185.068604
39.44 183.406754
39.46 179.274445
39.48 182.537781
39.50 177.695023
39.52 176.684158
39.54 164.544464
39.56 179.93045
39.58 184.524902
39.60 185.149689
39.62 182.850204
39.64 186.181671
39.66 180.628555
39.68 177.58725
39.70 175.848831
39.72 180.175598
39.74 185.542053
39.76 176.412643
39.78 170.023819
39.80 172.555695
39.82 180.193115
39.84 183.051529
39.86 183.896378
39.88 181.198303
39.90 179.757431
39.92 179.414215
39.94 181.71843
39.96 182.188934
39.98 172.376923
40.00 173.157364
