!@!!GADDS PLOTSO FILE: Chi integration type
!@!!Title/SampleName: ML_MAPbX3_chem3
!@!!User: NREL
!@!!Site: NREL SERF C211; SN 2510
!@!!Frame: C:\frames\rbelisle\MLProject\081022_MLProject_000_006.gfrm
!@!!Wavelengths    1.54184   1.54056   1.54439
!@!!Frame angles: 2Theta: 28.000 Omega: 5.000 Phi: 0.000 Chi: 90.000
!@!!Integration range: 2Theta: 10.000 to 40.000  Gamma: -100.000 to -80.000
!@!!Integration method: bin normalized
!@!N
!@!SS
!@!M
!@!L 0.0 0.0 0.0 0.0
!@!XDegrees
!@!YCounts
10.00 259.61554
10.02 247.005219
10.04 230.759384
10.06 224.660477
10.08 226.106689
10.10 219.572769
10.12 230.9086
10.14 241.574295
10.16 244.955765
10.18 234.487671
10.20 241.409607
10.22 230.027878
10.24 238.879623
10.26 255.400024
10.28 256.946716
10.30 266.657318
10.32 246.51915
10.34 238.068359
10.36 259.188904
10.38 230.632339
10.40 229.400558
10.42 220.939102
10.44 222.120132
10.46 244.246719
10.48 244.541977
10.50 244.741043
10.52 253.575928
10.54 265.835419
10.56 262.244507
10.58 234.410721
10.60 247.591476
10.62 264.412231
10.64 273.026459
10.66 271.28421
10.68 263.214203
10.70 254.021347
10.72 247.970612
10.74 241.194946
10.76 267.509613
10.78 266.445648
10.80 243.873459
10.82 252.807419
10.84 254.411102
10.86 251.321671
10.88 245.548676
10.90 257.911957
10.92 268.863922
10.94 252.671402
10.96 255.887238
10.98 273.114502
11.00 266.235779
11.02 283.752533
11.04 264.750275
11.06 253.353561
11.08 266.874298
11.10 277.845184
11.12 264.947266
11.14 258.808105
11.16 258.650604
11.18 244.100098
11.20 250.581421
11.22 265.807556
11.24 258.25174
11.26 257.568848
11.28 268.989746
11.30 285.83783
11.32 273.633545
11.34 276.127014
11.36 263.734985
11.38 262.248749
11.40 260.879669
11.42 268.149719
11.44 273.684692
11.46 297.224213
11.48 292.342224
11.50 274.072632
11.52 282.449066
11.54 284.704041
11.56 269.982178
11.58 255.495422
11.60 261.489685
11.62 285.652222
11.64 286.092682
11.66 288.435699
11.68 285.308319
11.70 294.354126
11.72 299.604889
11.74 272.099792
11.76 267.039459
11.78 265.078278
11.80 276.630707
11.82 276.753082
11.84 279.542877
11.86 270.983215
11.88 269.110565
11.90 265.220093
11.92 270.765411
11.94 280.52179
11.96 269.944672
11.98 282.924622
12.00 278.225372
12.02 269.729065
12.04 276.067078
12.06 275.615143
12.08 281.413239
12.10 290.013641
12.12 281.152954
12.14 302.37735
12.16 293.445648
12.18 285.3685
12.20 304.423218
12.22 324.690308
12.24 317.812317
12.26 302.48407
12.28 297.612061
12.30 302.575867
12.32 308.215942
12.34 299.349091
12.36 299.273438
12.38 320.213898
12.40 305.558685
12.42 324.492859
12.44 312.8591
12.46 326.229156
12.48 322.061401
12.50 330.10141
12.52 311.354858
12.54 301.167694
12.56 333.390625
12.58 353.649597
12.60 337.468048
12.62 334.062164
12.64 323.935852
12.66 345.251434
12.68 337.726379
12.70 344.538879
12.72 336.398621
12.74 334.59024
12.76 350.725616
12.78 350.812592
12.80 359.174988
12.82 352.545959
12.84 372.395538
12.86 360.561798
12.88 339.404205
12.90 331.905884
12.92 327.667725
12.94 343.617584
12.96 364.776184
12.98 357.989044
13.00 319.156677
13.02 332.572449
13.04 327.354645
13.06 333.518524
13.08 338.671539
13.10 321.536499
13.12 320.531036
13.14 308.502777
13.16 327.060394
13.18 315.360168
13.20 328.488708
13.22 323.143707
13.24 316.086334
13.26 307.168304
13.28 332.043976
13.30 321.406952
13.32 321.969879
13.34 305.471497
13.36 316.651764
13.38 332.970245
13.40 332.634033
13.42 321.730103
13.44 325.565277
13.46 317.453552
13.48 336.634857
13.50 350.895782
13.52 344.957916
13.54 335.319458
13.56 344.540161
13.58 336.64682
13.60 319.718719
13.62 324.232605
13.64 332.996704
13.66 343.121185
13.68 350.481659
13.70 345.49884
13.72 333.154999
13.74 347.962891
13.76 340.839478
13.78 363.92572
13.80 364.370514
13.82 351.798096
13.84 347.740814
13.86 338.721069
13.88 344.166565
13.90 355.665009
13.92 341.964203
13.94 349.129456
13.96 353.815979
13.98 369.748383
14.00 376.245453
14.02 376.441132
14.04 375.36319
14.06 374.259094
14.08 368.514374
14.10 377.513
14.12 364.165131
14.14 394.229187
14.16 378.548248
14.18 371.105225
14.20 374.298553
14.22 376.065155
14.24 386.755859
14.26 399.765533
14.28 416.465912
14.30 420.340179
14.32 415.894409
14.34 435.78006
14.36 465.481628
14.38 474.155182
14.40 469.853546
14.42 486.566498
14.44 506.507935
14.46 536.960449
14.48 549.051941
14.50 585.822876
14.52 615.013306
14.54 627.631836
14.56 597.570251
14.58 601.792786
14.60 632.919373
14.62 650.156006
14.64 643.281799
14.66 630.882385
14.68 628.744324
14.70 621.650635
14.72 626.379456
14.74 636.185059
14.76 630.791016
14.78 616.859436
14.80 613.592163
14.82 610.914734
14.84 607.626648
14.86 625.305054
14.88 633.819153
14.90 656.079712
14.92 674.990356
14.94 718.050415
14.96 740.084412
14.98 775.635071
15.00 763.023743
15.02 789.906799
15.04 849.28418
15.06 915.553223
15.08 955.953369
15.10 1013.500061
15.12 1078.23999
15.14 1151.088623
15.16 1263.662842
15.18 1305.521118
15.20 1363.788574
15.22 1513.385986
15.24 1698.821045
15.26 1855.868774
15.28 1984.38208
15.30 2088.965088
15.32 2255.032959
15.34 2416.428711
15.36 2533.286133
15.38 2614.077637
15.40 2702.937012
15.42 2762.453125
15.44 2787.855225
15.46 2716.680908
15.48 2598.37207
15.50 2444.841064
15.52 2210.311523
15.54 1997.025879
15.56 1849.637329
15.58 1647.666626
15.60 1446.009155
15.62 1250.509399
15.64 1129.136597
15.66 1038.36084
15.68 919.865356
15.70 823.377014
15.72 762.012207
15.74 718.473572
15.76 694.86676
15.78 687.946228
15.80 631.520386
15.82 603.589844
15.84 575.761353
15.86 579.5448
15.88 570.131226
15.90 511.258148
15.92 506.714386
15.94 521.490601
15.96 496.347168
15.98 479.143707
16.00 468.993622
16.02 461.898438
16.04 454.375763
16.06 452.388763
16.08 428.83136
16.10 425.68576
16.12 427.891815
16.14 437.086487
16.16 432.922546
16.18 429.807129
16.20 406.724823
16.22 388.772034
16.24 400.927643
16.26 381.921692
16.28 373.661469
16.30 377.347778
16.32 380.536438
16.34 384.59201
16.36 401.167084
16.38 393.428314
16.40 394.335358
16.42 374.337067
16.44 373.091156
16.46 362.784241
16.48 378.534912
16.50 385.037048
16.52 383.989929
16.54 382.972015
16.56 385.131653
16.58 388.624359
16.60 371.67868
16.62 370.411926
16.64 370.211884
16.66 368.564941
16.68 360.169403
16.70 364.011871
16.72 353.569214
16.74 366.260681
16.76 374.098419
16.78 366.900024
16.80 361.943024
16.82 371.914551
16.84 375.548309
16.86 375.71405
16.88 377.325714
16.90 382.087799
16.92 380.631866
16.94 366.298798
16.96 359.696594
16.98 371.208649
17.00 363.854828
17.02 375.444397
17.04 387.497314
17.06 373.887268
17.08 376.879395
17.10 375.851898
17.12 353.688171
17.14 361.693481
17.16 381.829559
17.18 378.207611
17.20 356.037933
17.22 357.199036
17.24 350.362091
17.26 383.623596
17.28 390.705017
17.30 366.401093
17.32 376.919525
17.34 368.711548
17.36 371.809143
17.38 366.17276
17.40 371.363068
17.42 368.756378
17.44 360.824493
17.46 369.116333
17.48 371.565735
17.50 391.065857
17.52 406.989746
17.54 389.282196
17.56 381.286896
17.58 388.448578
17.60 384.313019
17.62 387.836884
17.64 388.408752
17.66 369.261017
17.68 370.46582
17.70 389.759216
17.72 400.335419
17.74 395.190186
17.76 392.193756
17.78 388.73761
17.80 378.60495
17.82 402.482941
17.84 398.532166
17.86 410.240234
17.88 419.526031
17.90 403.033234
17.92 384.038727
17.94 387.985809
17.96 394.045776
17.98 402.965027
18.00 388.644196
18.02 387.363495
18.04 394.124359
18.06 399.072601
18.08 393.344452
18.10 401.483215
18.12 415.651337
18.14 423.808136
18.16 394.775665
18.18 394.732605
18.20 405.609741
18.22 402.523895
18.24 393.354065
18.26 407.953064
18.28 418.646088
18.30 409.380432
18.32 426.557556
18.34 415.691956
18.36 417.811584
18.38 404.522217
18.40 407.69635
18.42 419.476471
18.44 401.676727
18.46 416.357391
18.48 404.297028
18.50 402.03302
18.52 426.393097
18.54 433.496918
18.56 429.503357
18.58 413.269196
18.60 420.326813
18.62 418.928925
18.64 391.532959
18.66 398.797516
18.68 420.305084
18.70 427.61319
18.72 429.421844
18.74 425.602203
18.76 414.157227
18.78 411.041748
18.80 401.32309
18.82 413.390259
18.84 439.722687
18.86 421.805267
18.88 418.986176
18.90 423.929565
18.92 434.828796
18.94 429.466614
18.96 416.371307
18.98 405.376068
19.00 408.591339
19.02 407.965515
19.04 406.509338
19.06 408.424347
19.08 426.10498
19.10 410.811676
19.12 411.402802
19.14 430.828918
19.16 428.220276
19.18 424.803131
19.20 436.914307
19.22 432.873932
19.24 437.358337
19.26 440.049194
19.28 437.569275
19.30 442.590607
19.32 433.435577
19.34 448.333344
19.36 447.937164
19.38 431.679901
19.40 446.040405
19.42 453.196228
19.44 451.698822
19.46 437.849121
19.48 442.192688
19.50 450.537048
19.52 464.332062
19.54 454.532227
19.56 443.790009
19.58 444.527985
19.60 447.272858
19.62 462.65274
19.64 453.917542
19.66 439.711853
19.68 437.796844
19.70 452.523041
19.72 464.599731
19.74 457.334137
19.76 455.273315
19.78 467.136108
19.80 459.83905
19.82 477.28302
19.84 473.804291
19.86 453.190063
19.88 457.242523
19.90 459.502014
19.92 461.769989
19.94 457.53363
19.96 471.671112
19.98 465.20932
20.00 463.049713
20.02 463.069366
20.04 450.330383
20.06 463.790558
20.08 475.807159
20.10 470.678558
20.12 476.762054
20.14 481.944855
20.16 477.580872
20.18 487.113159
20.20 490.547882
20.22 474.329071
20.24 464.983826
20.26 481.541565
20.28 473.073853
20.30 474.907806
20.32 480.228424
20.34 487.198425
20.36 487.121094
20.38 480.463348
20.40 488.906403
20.42 488.699646
20.44 485.08139
20.46 479.36969
20.48 517.857117
20.50 501.888214
20.52 490.578369
20.54 477.432556
20.56 480.76532
20.58 494.270569
20.60 509.533325
20.62 487.789459
20.64 481.428894
20.66 492.498505
20.68 494.503235
20.70 490.093445
20.72 501.793396
20.74 513.219604
20.76 497.639893
20.78 513.006897
20.80 509.114471
20.82 505.710754
20.84 505.883636
20.86 499.944855
20.88 511.847839
20.90 521.333862
20.92 523.536011
20.94 518.244873
20.96 545.8172
20.98 546.356384
21.00 527.262146
21.02 523.198486
21.04 500.640839
21.06 518.091858
21.08 518.644775
21.10 531.577026
21.12 521.534424
21.14 506.813354
21.16 516.713928
21.18 525.355835
21.20 513.966003
21.22 516.361206
21.24 524.342834
21.26 527.184753
21.28 545.954041
21.30 547.907593
21.32 541.628784
21.34 561.055603
21.36 554.619202
21.38 538.681152
21.40 546.570313
21.42 549.064575
21.44 540.277405
21.46 532.529236
21.48 550.866333
21.50 551.094543
21.52 529.804382
21.54 530.292603
21.56 538.617798
21.58 548.253479
21.60 544.85553
21.62 536.131653
21.64 530.454163
21.66 544.547974
21.68 559.384949
21.70 575.384216
21.72 574.306274
21.74 560.79303
21.76 580.7323
21.78 589.808899
21.80 592.971741
21.82 597.529785
21.84 593.125854
21.86 577.660278
21.88 580.05249
21.90 596.700378
21.92 586.601074
21.94 589.960632
21.96 605.530762
21.98 587.228821
22.00 587.756042
22.02 584.732666
22.04 562.579834
22.06 557.266724
22.08 549.296631
22.10 558.417786
22.12 567.338562
22.14 561.323059
22.16 566.726257
22.18 563.301514
22.20 563.204529
22.22 564.199829
22.24 572.293579
22.26 567.909485
22.28 568.834717
22.30 567.832825
22.32 561.448792
22.34 560.776184
22.36 558.223206
22.38 563.37738
22.40 558.221008
22.42 567.966919
22.44 563.577454
22.46 571.734009
22.48 594.955322
22.50 579.148865
22.52 571.361389
22.54 601.720215
22.56 601.905212
22.58 599.225403
22.60 582.556396
22.62 567.377563
22.64 538.140686
22.66 571.357605
22.68 575.729858
22.70 578.479248
22.72 584.173096
22.74 580.682007
22.76 586.769043
22.78 586.864746
22.80 596.266113
22.82 574.050659
22.84 565.477661
22.86 551.845581
22.88 571.936218
22.90 596.440735
22.92 592.953308
22.94 588.766541
22.96 595.825623
22.98 585.163391
23.00 601.102417
23.02 600.142944
23.04 593.841675
23.06 597.94281
23.08 589.508789
23.10 575.65979
23.12 562.887756
23.14 564.382996
23.16 554.556519
23.18 580.686646
23.20 584.087646
23.22 578.599304
23.24 581.320984
23.26 598.78772
23.28 601.785034
23.30 592.597534
23.32 596.793762
23.34 567.083801
23.36 583.104004
23.38 597.645508
23.40 564.512329
23.42 583.682678
23.44 609.22583
23.46 582.409119
23.48 576.88562
23.50 585.57959
23.52 590.557556
23.54 597.134338
23.56 596.57489
23.58 596.870483
23.60 605.49707
23.62 612.288086
23.64 611.118896
23.66 603.558472
23.68 592.695068
23.70 578.302002
23.72 579.428833
23.74 600.922119
23.76 613.285706
23.78 596.793152
23.80 606.774048
23.82 611.915833
23.84 606.646851
23.86 604.984009
23.88 601.997803
23.90 610.593689
23.92 589.400513
23.94 572.346558
23.96 589.554138
23.98 594.997498
24.00 594.422485
24.02 580.556152
24.04 599.860962
24.06 598.00177
24.08 595.078125
24.10 601.089111
24.12 589.212585
24.14 576.885498
24.16 576.145203
24.18 590.069275
24.20 598.180359
24.22 612.25824
24.24 598.995911
24.26 590.434204
24.28 602.139587
24.30 603.973572
24.32 611.076538
24.34 606.848633
24.36 614.750977
24.38 618.490845
24.40 605.763428
24.42 596.887085
24.44 614.35437
24.46 618.422485
24.48 614.531372
24.50 606.552856
24.52 625.214722
24.54 630.524719
24.56 612.881042
24.58 586.099365
24.60 586.289063
24.62 580.80835
24.64 592.466614
24.66 598.634033
24.68 604.824158
24.70 599.714844
24.72 597.540894
24.74 609.136292
24.76 593.898376
24.78 583.281372
24.80 606.841736
24.82 601.730286
24.84 600.517273
24.86 602.224182
24.88 618.932983
24.90 599.483582
24.92 602.585144
24.94 610.105469
24.96 614.007874
24.98 616.075256
25.00 608.406372
25.02 596.391724
25.04 594.09137
25.06 593.479919
25.08 609.367615
25.10 605.981689
25.12 598.310913
25.14 604.280151
25.16 600.849548
25.18 618.846863
25.20 598.585083
25.22 600.106079
25.24 612.605957
25.26 613.606018
25.28 610.558044
25.30 595.33905
25.32 610.551086
25.34 604.12207
25.36 613.076111
25.38 602.760193
25.40 603.184875
25.42 596.805603
25.44 600.193359
25.46 600.783081
25.48 599.752136
25.50 622.488464
25.52 632.949951
25.54 621.798584
25.56 602.862305
25.58 600.239746
25.60 625.077759
25.62 620.902588
25.64 626.445618
25.66 610.575806
25.68 602.032227
25.70 623.915649
25.72 593.237427
25.74 608.337097
25.76 612.970703
25.78 621.380432
25.80 598.254333
25.82 576.000427
25.84 584.793518
25.86 617.709839
25.88 611.970825
25.90 601.567139
25.92 612.002808
25.94 617.841919
25.96 628.643982
25.98 607.600464
26.00 602.711548
26.02 594.3479
26.04 593.040344
26.06 607.012573
26.08 624.141724
26.10 606.935059
26.12 608.041321
26.14 620.495789
26.16 629.895752
26.18 604.544495
26.20 600.928467
26.22 596.075928
26.24 604.234924
26.26 600.13031
26.28 604.218811
26.30 607.941895
26.32 596.178284
26.34 581.441101
26.36 594.235901
26.38 608.97229
26.40 617.364441
26.42 599.891541
26.44 578.257141
26.46 593.131104
26.48 593.557556
26.50 607.042908
26.52 600.307434
26.54 613.064392
26.56 600.59375
26.58 598.780029
26.60 614.353699
26.62 597.737915
26.64 595.263733
26.66 594.997864
26.68 594.340393
26.70 593.120178
26.72 591.905029
26.74 581.756287
26.76 573.585449
26.78 588.348755
26.80 579.752808
26.82 578.008789
26.84 589.680725
26.86 595.849792
26.88 585.149658
26.90 599.498413
26.92 607.733765
26.94 604.743896
26.96 588.532227
26.98 580.257141
27.00 588.797913
27.02 595.612488
27.04 593.365845
27.06 592.914246
27.08 591.863342
27.10 597.272461
27.12 583.846985
27.14 583.827637
27.16 580.22876
27.18 592.311157
27.20 581.994995
27.22 588.856262
27.24 584.138611
27.26 580.68103
27.28 587.408081
27.30 599.69635
27.32 593.978638
27.34 580.177002
27.36 595.089355
27.38 586.647278
27.40 574.030823
27.42 583.636902
27.44 590.374451
27.46 589.837524
27.48 596.719727
27.50 589.77655
27.52 583.944946
27.54 583.441223
27.56 584.440674
27.58 587.342102
27.60 596.328857
27.62 584.423767
27.64 581.675049
27.66 593.645386
27.68 596.215393
27.70 588.191833
27.72 582.133728
27.74 588.259399
27.76 598.424683
27.78 599.579773
27.80 565.481873
27.82 584.023987
27.84 599.522095
27.86 603.2099
27.88 605.078979
27.90 597.047058
27.92 588.483948
27.94 575.148621
27.96 588.60083
27.98 589.642273
28.00 584.393005
28.02 575.57074
28.04 580.362488
28.06 587.604065
28.08 571.218201
28.10 575.562805
28.12 571.516602
28.14 573.896973
28.16 580.669678
28.18 575.068298
28.20 577.229919
28.22 583.920349
28.24 589.7453
28.26 593.282471
28.28 589.468018
28.30 580.046082
28.32 601.187683
28.34 603.586365
28.36 582.78894
28.38 562.35022
28.40 564.612915
28.42 559.88678
28.44 574.975037
28.46 576.092773
28.48 589.479492
28.50 592.094116
28.52 583.017761
28.54 583.237488
28.56 598.336731
28.58 582.656311
28.60 589.469543
28.62 593.496948
28.64 588.272766
28.66 568.340332
28.68 572.936157
28.70 570.93866
28.72 566.811584
28.74 584.674805
28.76 583.07196
28.78 578.639893
28.80 595.845337
28.82 612.907288
28.84 593.951355
28.86 568.760925
28.88 556.289673
28.90 593.002441
28.92 577.727722
28.94 589.787842
28.96 579.957764
28.98 582.867737
29.00 576.138672
29.02 582.871216
29.04 592.006897
29.06 598.151489
29.08 608.181396
29.10 612.708679
29.12 591.823242
29.14 588.660339
29.16 577.927124
29.18 600.179016
29.20 604.609009
29.22 580.156372
29.24 575.845703
29.26 583.151001
29.28 600.146362
29.30 613.338257
29.32 610.668396
29.34 609.948181
29.36 606.975342
29.38 600.894836
29.40 613.980591
29.42 606.78833
29.44 608.458496
29.46 614.54248
29.48 619.944458
29.50 622.736755
29.52 622.496765
29.54 634.106323
29.56 626.716003
29.58 630.467224
29.60 627.62854
29.62 617.411255
29.64 603.241333
29.66 596.449768
29.68 591.115601
29.70 589.42511
29.72 606.549133
29.74 604.649353
29.76 586.32666
29.78 595.832458
29.80 603.170166
29.82 595.584473
29.84 581.322815
29.86 604.967224
29.88 594.001099
29.90 584.010498
29.92 583.011414
29.94 566.717407
29.96 572.100952
29.98 580.641296
30.00 604.149719
30.02 588.583008
30.04 568.452576
30.06 563.137512
30.08 578.078674
30.10 589.590698
30.12 589.292236
30.14 603.091736
30.16 593.44104
30.18 586.223938
30.20 583.530334
30.22 583.324646
30.24 592.548218
30.26 594.204529
30.28 592.829529
30.30 583.234619
30.32 597.908875
30.34 602.677429
30.36 596.75592
30.38 591.022034
30.40 605.520325
30.42 599.985046
30.44 602.781128
30.46 619.68103
30.48 609.019775
30.50 601.713074
30.52 608.564697
30.54 600.347839
30.56 612.688599
30.58 626.249756
30.60 614.625732
30.62 607.043152
30.64 617.209106
30.66 616.515686
30.68 615.938904
30.70 629.62262
30.72 621.571289
30.74 631.148682
30.76 632.679565
30.78 660.838013
30.80 639.756226
30.82 659.098938
30.84 667.548889
30.86 678.987732
30.88 680.253601
30.90 694.72113
30.92 707.223633
30.94 759.711426
30.96 798.672241
30.98 817.531433
31.00 818.677856
31.02 887.375244
31.04 965.732483
31.06 1038.926514
31.08 1053.928833
31.10 1100.717041
31.12 1158.569092
31.14 1240.046875
31.16 1286.654419
31.18 1296.096313
31.20 1312.847656
31.22 1314.270508
31.24 1271.479736
31.26 1187.690186
31.28 1136.537476
31.30 1118.133301
31.32 1050.333008
31.34 979.536072
31.36 901.473633
31.38 863.018799
31.40 816.194336
31.42 767.368286
31.44 741.224487
31.46 690.114807
31.48 656.201843
31.50 639.635681
31.52 639.783203
31.54 612.008667
31.56 610.657166
31.58 622.874268
31.60 604.482483
31.62 591.640564
31.64 585.763916
31.66 592.981995
31.68 582.65979
31.70 575.547607
31.72 574.227783
31.74 554.530884
31.76 561.640442
31.78 569.84021
31.80 561.48053
31.82 555.347168
31.84 560.44928
31.86 545.745972
31.88 531.525085
31.90 543.780762
31.92 556.704407
31.94 543.011658
31.96 520.577881
31.98 530.804871
32.00 539.549622
32.02 546.376282
32.04 533.815002
32.06 538.349792
32.08 552.628296
32.10 549.594849
32.12 529.202393
32.14 541.897766
32.16 551.023438
32.18 542.59314
32.20 522.292358
32.22 533.195374
32.24 533.209717
32.26 525.330811
32.28 532.980835
32.30 516.335571
32.32 523.869873
32.34 524.300049
32.36 501.271362
32.38 511.38678
32.40 517.896851
32.42 514.644531
32.44 507.737579
32.46 517.549561
32.48 513.648438
32.50 511.627625
32.52 514.658508
32.54 514.94043
32.56 497.248138
32.58 486.930298
32.60 498.350647
32.62 513.961365
32.64 526.85437
32.66 535.690369
32.68 519.640625
32.70 489.269745
32.72 500.804626
32.74 510.737854
32.76 499.761993
32.78 488.924408
32.80 489.564178
32.82 498.935303
32.84 499.078217
32.86 482.029266
32.88 482.607574
32.90 494.421997
32.92 501.18576
32.94 492.479065
32.96 486.432739
32.98 478.868958
33.00 481.234711
33.02 503.503479
33.04 516.045654
33.06 504.620361
33.08 486.074585
33.10 490.389313
33.12 493.675293
33.14 495.32547
33.16 481.916351
33.18 484.697571
33.20 479.865417
33.22 475.565521
33.24 482.835175
33.26 491.012726
33.28 498.290375
33.30 497.491791
33.32 492.145416
33.34 467.551392
33.36 477.277649
33.38 475.017059
33.40 485.121399
33.42 472.260345
33.44 483.755219
33.46 473.620514
33.48 480.112823
33.50 473.019073
33.52 473.894073
33.54 475.130219
33.56 467.810699
33.58 472.035431
33.60 477.938324
33.62 482.073181
33.64 495.08371
33.66 478.401306
33.68 473.120728
33.70 471.163727
33.72 466.254333
33.74 463.551697
33.76 460.252228
33.78 469.586517
33.80 464.594116
33.82 455.240753
33.84 452.461884
33.86 463.745667
33.88 460.265076
33.90 464.047943
33.92 469.384338
33.94 473.764954
33.96 476.760162
33.98 475.942841
34.00 462.25058
34.02 459.862152
34.04 457.071167
34.06 459.712158
34.08 456.316284
34.10 452.568756
34.12 473.478851
34.14 465.108826
34.16 457.102661
34.18 466.993561
34.20 460.689819
34.22 465.549377
34.24 462.5448
34.26 451.179352
34.28 466.617554
34.30 454.446411
34.32 457.139404
34.34 459.637207
34.36 453.34024
34.38 444.867645
34.40 461.065308
34.42 462.756744
34.44 454.389832
34.46 461.020752
34.48 456.299133
34.50 451.137177
34.52 450.004852
34.54 452.129089
34.56 448.670532
34.58 440.420776
34.60 451.933624
34.62 453.740845
34.64 460.784668
34.66 444.659149
34.68 439.412598
34.70 457.131622
34.72 449.986694
34.74 439.219543
34.76 445.78891
34.78 445.476257
34.80 450.807465
34.82 457.785004
34.84 453.226471
34.86 452.245392
34.88 456.411896
34.90 453.124695
34.92 444.71228
34.94 455.018646
34.96 462.232666
34.98 470.169495
35.00 454.594452
35.02 439.375793
35.04 444.932709
35.06 444.304596
35.08 433.930481
35.10 439.408661
35.12 443.796875
35.14 427.169525
35.16 426.323151
35.18 424.508209
35.20 428.358734
35.22 425.995758
35.24 412.180084
35.26 416.969269
35.28 415.576843
35.30 408.02066
35.32 410.596222
35.34 421.854218
35.36 418.215851
35.38 406.414551
35.40 403.13504
35.42 396.636444
35.44 406.08139
35.46 403.438751
35.48 408.339233
35.50 406.248077
35.52 401.586395
35.54 402.325623
35.56 406.758911
35.58 399.587616
35.60 397.290009
35.62 395.923828
35.64 390.419128
35.66 391.471069
35.68 395.445862
35.70 411.669556
35.72 407.937988
35.74 394.99884
35.76 402.960205
35.78 399.534882
35.80 388.88736
35.82 394.96167
35.84 398.881165
35.86 404.136841
35.88 399.837433
35.90 401.483398
35.92 390.944183
35.94 393.453979
35.96 388.562775
35.98 370.792297
36.00 375.745636
36.02 384.815247
36.04 393.214111
36.06 385.055298
36.08 376.243622
36.10 386.022797
36.12 393.385223
36.14 380.5979
36.16 395.288086
36.18 383.353943
36.20 367.109467
36.22 379.648529
36.24 373.016876
36.26 374.156555
36.28 377.701111
36.30 381.487549
36.32 389.290161
36.34 381.826965
36.36 391.329987
36.38 380.986633
36.40 396.873718
36.42 387.652008
36.44 378.298462
36.46 375.247101
36.48 388.238098
36.50 373.827576
36.52 360.954529
36.54 368.745026
36.56 382.524536
36.58 378.580444
36.60 357.691437
36.62 361.52478
36.64 376.726624
36.66 377.539429
36.68 387.757294
36.70 374.704071
36.72 380.213501
36.74 367.04834
36.76 359.94101
36.78 361.981445
36.80 356.79834
36.82 351.033752
36.84 354.140594
36.86 364.072754
36.88 353.957458
36.90 355.84317
36.92 360.934509
36.94 366.181305
36.96 360.6138
36.98 362.519379
37.00 362.781738
37.02 352.043671
37.04 347.705933
37.06 345.109711
37.08 349.653656
37.10 350.636566
37.12 355.769287
37.14 358.368164
37.16 343.914215
37.18 346.579559
37.20 341.886017
37.22 345.280518
37.24 342.174896
37.26 354.047577
37.28 350.824097
37.30 355.440491
37.32 358.033539
37.34 347.450348
37.36 335.864441
37.38 333.472168
37.40 339.184082
37.42 346.456116
37.44 351.017761
37.46 358.510712
37.48 358.639587
37.50 345.289673
37.52 349.688019
37.54 346.706818
37.56 337.647308
37.58 346.389343
37.60 344.569885
37.62 323.31897
37.64 334.082336
37.66 337.675476
37.68 326.417511
37.70 334.851624
37.72 338.590576
37.74 341.902527
37.76 346.571899
37.78 348.771362
37.80 344.641846
37.82 326.970825
37.84 337.251526
37.86 335.027283
37.88 339.202362
37.90 341.935425
37.92 340.145569
37.94 340.89566
37.96 339.978302
37.98 330.001312
38.00 342.175476
38.02 341.769745
38.04 329.68161
38.06 325.151184
38.08 335.155121
38.10 338.112671
38.12 346.586792
38.14 339.351501
38.16 332.230713
38.18 339.730835
38.20 325.380341
38.22 328.653442
38.24 328.496155
38.26 327.460846
38.28 332.004395
38.30 335.011871
38.32 334.476135
38.34 333.171875
38.36 343.176056
38.38 342.716125
38.40 332.341675
38.42 334.726227
38.44 337.609528
38.46 332.878998
38.48 343.877533
38.50 342.245514
38.52 348.141113
38.54 338.014435
38.56 335.890411
38.58 334.077026
38.60 332.382202
38.62 328.836456
38.64 324.156738
38.66 316.099182
38.68 312.651886
38.70 327.928406
38.72 315.295166
38.74 307.39505
38.76 307.948425
38.78 316.953339
38.80 321.786346
38.82 317.733398
38.84 322.253967
38.86 325.944489
38.88 325.757446
38.90 322.703552
38.92 311.347595
38.94 301.863281
38.96 308.88028
38.98 297.01474
39.00 314.839661
39.02 335.517334
39.04 326.244843
39.06 317.526001
39.08 315.431641
39.10 316.434937
39.12 313.769501
39.14 309.456299
39.16 307.459076
39.18 301.960602
39.20 310.605743
39.22 316.843231
39.24 306.834564
39.26 305.748718
39.28 311.61969
39.30 321.647644
39.32 319.015442
39.34 300.007141
39.36 304.731628
39.38 307.061035
39.40 312.111176
39.42 304.052002
39.44 304.859253
39.46 309.81955
39.48 315.157196
39.50 317.172516
39.52 309.172394
39.54 297.57309
39.56 316.652161
39.58 301.324677
39.60 295.544495
39.62 299.867157
39.64 305.359314
39.66 297.325348
39.68 296.719635
39.70 304.972534
39.72 310.008209
39.74 302.410217
39.76 300.561462
39.78 295.98465
39.80 304.275299
39.82 305.932556
39.84 292.480286
39.86 297.160156
39.88 297.39035
39.90 299.81778
39.92 307.855377
39.94 295.732941
39.96 301.502838
39.98 302.017151
40.00 303.888092
