!@!!GADDS PLOTSO FILE: Chi integration type
!@!!Title/SampleName: ML_MAPbX3
!@!!User: NREL
!@!!Site: NREL SERF C211; SN 2510
!@!!Frame: 081022_MLProject_000_010.gfrm
!@!!Wavelengths    1.54184   1.54056   1.54439
!@!!Frame angles: 2Theta: 28.000 Omega: 5.000 Phi: 0.000 Chi: 90.000
!@!!Integration range: 2Theta: 10.000 to 40.000  Gamma: -100.000 to -80.000
!@!!Integration method: bin normalized
!@!N
!@!SS
!@!M
!@!L 0.0 0.0 0.0 0.0
!@!XDegrees
!@!YCounts
10.00 234.576416
10.02 230.212036
10.04 244.582764
10.06 250.896835
10.08 244.285202
10.10 231.889191
10.12 250.973251
10.14 267.917908
10.16 257.328217
10.18 240.696274
10.20 262.752838
10.22 250.668289
10.24 231.540283
10.26 229.328659
10.28 250.336014
10.30 253.956985
10.32 250.879807
10.34 274.918976
10.36 255.321838
10.38 251.518082
10.40 249.357101
10.42 247.168457
10.44 244.332413
10.46 264.190918
10.48 272.063293
10.50 257.965973
10.52 254.087219
10.54 240.756241
10.56 232.348358
10.58 226.872833
10.60 242.540421
10.62 249.696823
10.64 255.771088
10.66 237.374115
10.68 241.73587
10.70 240.405167
10.72 256.846985
10.74 256.083862
10.76 274.888794
10.78 278.544037
10.80 261.453674
10.82 259.228912
10.84 263.977631
10.86 266.039459
10.88 264.396393
10.90 255.417007
10.92 262.549561
10.94 263.38266
10.96 280.45401
10.98 280.059296
11.00 281.83136
11.02 292.133911
11.04 276.130981
11.06 269.545807
11.08 258.941528
11.10 269.259979
11.12 252.4673
11.14 245.739456
11.16 263.683838
11.18 263.079834
11.20 261.778259
11.22 250.553177
11.24 256.278778
11.26 271.105957
11.28 263.222321
11.30 244.652817
11.32 258.253479
11.34 273.886169
11.36 261.913544
11.38 249.179077
11.40 255.021225
11.42 256.98053
11.44 258.620789
11.46 276.585297
11.48 277.211853
11.50 281.085907
11.52 271.011078
11.54 256.814117
11.56 262.361633
11.58 269.15155
11.60 268.1539
11.62 267.151947
11.64 276.582336
11.66 274.36145
11.68 294.05069
11.70 278.195526
11.72 271.835724
11.74 272.091034
11.76 263.298981
11.78 250.735855
11.80 281.696655
11.82 282.85144
11.84 284.749481
11.86 285.856354
11.88 303.593445
11.90 287.849701
11.92 298.191833
11.94 278.971283
11.96 256.052032
11.98 270.355377
12.00 274.52417
12.02 287.209839
12.04 294.153656
12.06 284.132477
12.08 289.78009
12.10 286.580688
12.12 296.236938
12.14 298.73056
12.16 295.25058
12.18 305.910553
12.20 284.492157
12.22 298.297485
12.24 293.86615
12.26 310.010284
12.28 304.819061
12.30 315.980896
12.32 291.46759
12.34 303.812958
12.36 307.037994
12.38 319.718262
12.40 350.162933
12.42 324.289307
12.44 322.546692
12.46 322.478516
12.48 332.433167
12.50 324.580139
12.52 313.985382
12.54 315.949768
12.56 327.633606
12.58 326.491028
12.60 323.158203
12.62 297.951355
12.64 313.906555
12.66 319.297455
12.68 309.811066
12.70 306.951385
12.72 318.578064
12.74 315.65683
12.76 316.467346
12.78 323.164276
12.80 323.449127
12.82 302.131195
12.84 300.578064
12.86 300.075165
12.88 289.041595
12.90 290.752441
12.92 299.803741
12.94 326.57724
12.96 308.164276
12.98 326.284119
13.00 317.449219
13.02 314.436584
13.04 307.245728
13.06 314.736786
13.08 329.256195
13.10 314.464233
13.12 307.560699
13.14 326.052917
13.16 317.973694
13.18 314.836304
13.20 298.548798
13.22 290.376007
13.24 293.888123
13.26 319.496063
13.28 308.654694
13.30 312.206238
13.32 338.644104
13.34 334.782867
13.36 330.041443
13.38 310.21933
13.40 318.813843
13.42 313.958252
13.44 317.148895
13.46 336.42807
13.48 326.878296
13.50 342.542938
13.52 361.999207
13.54 360.408569
13.56 359.144501
13.58 342.399658
13.60 344.058899
13.62 335.770966
13.64 364.22995
13.66 347.755676
13.68 391.86084
13.70 425.94046
13.72 413.629395
13.74 403.099121
13.76 430.291107
13.78 438.644592
13.80 458.628601
13.82 462.906128
13.84 497.973145
13.86 515.021912
13.88 511.705963
13.90 534.173157
13.92 562.754517
13.94 610.892273
13.96 642.638611
13.98 664.00592
14.00 670.9104
14.02 750.985229
14.04 777.868652
14.06 791.832092
14.08 836.886536
14.10 912.182373
14.12 1007.236084
14.14 1055.708618
14.16 1114.789551
14.18 1232.333008
14.20 1347.845703
14.22 1463.059448
14.24 1546.230713
14.26 1659.536499
14.28 1767.282227
14.30 1811.837402
14.32 1964.623169
14.34 2100.142334
14.36 2214.991211
14.38 2265.101563
14.40 2312.438477
14.42 2412.811768
14.44 2397.938232
14.46 2355.236816
14.48 2307.796387
14.50 2238.074951
14.52 2105.645752
14.54 1964.440308
14.56 1779.42041
14.58 1574.99292
14.60 1439.446167
14.62 1270.483154
14.64 1131.743652
14.66 982.346191
14.68 877.619019
14.70 775.311523
14.72 704.285583
14.74 632.711853
14.76 583.593811
14.78 537.250183
14.80 540.588135
14.82 501.260223
14.84 484.73999
14.86 470.459167
14.88 459.377502
14.90 453.305878
14.92 436.472717
14.94 410.258789
14.96 436.399139
14.98 438.979797
15.00 429.706879
15.02 401.907562
15.04 401.662415
15.06 400.970276
15.08 388.461212
15.10 391.16568
15.12 393.914673
15.14 417.023468
15.16 406.06601
15.18 393.86203
15.20 408.04483
15.22 437.516052
15.24 438.588806
15.26 431.561432
15.28 455.109528
15.30 462.654236
15.32 462.558044
15.34 499.478271
15.36 511.197632
15.38 504.869995
15.40 512.214661
15.42 490.195496
15.44 463.102875
15.46 468.884583
15.48 435.431885
15.50 417.3172
15.52 407.939789
15.54 397.448822
15.56 407.292847
15.58 393.209747
15.60 385.921021
15.62 359.550873
15.64 334.13623
15.66 341.506409
15.68 349.535858
15.70 375.108398
15.72 376.476227
15.74 367.143951
15.76 362.063171
15.78 371.62207
15.80 366.129211
15.82 369.681274
15.84 356.453766
15.86 364.613495
15.88 381.089264
15.90 374.440247
15.92 357.574066
15.94 352.105591
15.96 352.909241
15.98 349.166656
16.00 361.135406
16.02 382.779816
16.04 355.24295
16.06 352.313843
16.08 356.979553
16.10 345.304047
16.12 348.01297
16.14 370.873474
16.16 373.585022
16.18 372.800323
16.20 339.849915
16.22 316.700348
16.24 323.785522
16.26 359.886322
16.28 367.595306
16.30 344.423706
16.32 347.980072
16.34 361.17923
16.36 357.455292
16.38 367.811981
16.40 365.508453
16.42 353.212006
16.44 353.970642
16.46 351.33136
16.48 346.078278
16.50 353.686554
16.52 351.237183
16.54 336.743042
16.56 334.80365
16.58 351.778229
16.60 366.439026
16.62 361.956665
16.64 382.004028
16.66 370.13916
16.68 362.120087
16.70 374.363312
16.72 372.624512
16.74 380.099426
16.76 364.851624
16.78 370.113495
16.80 387.649353
16.82 377.084259
16.84 357.636871
16.86 389.893097
16.88 356.975647
16.90 373.037506
16.92 365.741364
16.94 363.818481
16.96 372.292358
16.98 368.212646
17.00 387.292938
17.02 377.84201
17.04 368.461426
17.06 374.400299
17.08 376.150269
17.10 383.035583
17.12 386.459259
17.14 370.19046
17.16 358.632416
17.18 364.58786
17.20 373.768677
17.22 382.24234
17.24 381.573151
17.26 377.747406
17.28 378.849365
17.30 375.957764
17.32 376.56955
17.34 380.771606
17.36 373.310211
17.38 357.767822
17.40 377.864746
17.42 388.12085
17.44 395.065338
17.46 392.043915
17.48 379.650513
17.50 372.860321
17.52 387.168732
17.54 378.824097
17.56 380.921967
17.58 365.896484
17.60 384.637939
17.62 395.84729
17.64 389.891418
17.66 370.835938
17.68 382.201599
17.70 381.857941
17.72 389.691681
17.74 378.748688
17.76 387.970245
17.78 405.368042
17.80 413.05011
17.82 399.35257
17.84 382.381012
17.86 410.611053
17.88 394.757843
17.90 385.844971
17.92 392.681702
17.94 410.033386
17.96 401.018768
17.98 389.194489
18.00 404.281769
18.02 417.356628
18.04 402.18338
18.06 400.336365
18.08 400.853302
18.10 396.259277
18.12 411.256378
18.14 409.461945
18.16 404.32193
18.18 416.337891
18.20 429.249603
18.22 425.00293
18.24 422.10965
18.26 438.363281
18.28 443.197235
18.30 413.167572
18.32 428.353912
18.34 427.697815
18.36 428.598053
18.38 430.648804
18.40 426.471985
18.42 437.990387
18.44 432.931274
18.46 408.571991
18.48 421.9729
18.50 435.369232
18.52 448.230865
18.54 429.030273
18.56 441.002197
18.58 450.235138
18.60 441.817871
18.62 429.35025
18.64 432.986053
18.66 441.980438
18.68 427.437286
18.70 433.168335
18.72 449.424561
18.74 452.661926
18.76 433.874817
18.78 417.387543
18.80 429.3526
18.82 438.577423
18.84 446.592957
18.86 448.863098
18.88 446.276337
18.90 457.660736
18.92 460.912262
18.94 452.524689
18.96 455.609924
18.98 437.853485
19.00 452.872803
19.02 460.846436
19.04 442.519531
19.06 449.843903
19.08 468.435669
19.10 461.818787
19.12 448.943817
19.14 449.984009
19.16 451.197784
19.18 446.921234
19.20 460.813477
19.22 458.212128
19.24 449.813965
19.26 464.095795
19.28 474.145813
19.30 438.066589
19.32 456.822418
19.34 474.289734
19.36 473.200439
19.38 460.414124
19.40 451.491699
19.42 471.537872
19.44 486.632172
19.46 471.758087
19.48 473.416687
19.50 493.186035
19.52 483.54895
19.54 472.485413
19.56 466.715637
19.58 450.844177
19.60 472.156006
19.62 486.25528
19.64 468.638947
19.66 473.293091
19.68 475.129486
19.70 465.135101
19.72 460.178833
19.74 479.930756
19.76 466.839783
19.78 487.842773
19.80 476.088501
19.82 469.807007
19.84 496.916748
19.86 490.240814
19.88 484.771698
19.90 488.6745
19.92 482.3349
19.94 486.038666
19.96 504.588348
19.98 489.207062
20.00 488.350616
20.02 489.972626
20.04 500.674713
20.06 495.381409
20.08 510.415314
20.10 503.279785
20.12 510.944397
20.14 526.986328
20.16 521.030884
20.18 519.373352
20.20 515.943481
20.22 512.802612
20.24 535.196228
20.26 552.92041
20.28 535.281799
20.30 530.873718
20.32 536.098328
20.34 530.298035
20.36 537.565247
20.38 535.874451
20.40 542.200867
20.42 549.927429
20.44 532.717407
20.46 542.946472
20.48 552.139526
20.50 550.3479
20.52 536.377075
20.54 520.833374
20.56 539.97229
20.58 536.609436
20.60 541.634827
20.62 539.05896
20.64 546.794006
20.66 539.89447
20.68 559.424194
20.70 572.482056
20.72 552.991882
20.74 556.901428
20.76 540.303894
20.78 560.016479
20.80 555.993225
20.82 541.267517
20.84 550.235657
20.86 548.857361
20.88 560.915405
20.90 581.10553
20.92 559.565125
20.94 558.545654
20.96 534.928101
20.98 545.329834
21.00 549.523804
21.02 552.801392
21.04 555.677307
21.06 557.518616
21.08 542.834167
21.10 560.945374
21.12 564.877258
21.14 576.808533
21.16 568.739746
21.18 560.486084
21.20 565.334534
21.22 554.802185
21.24 575.069763
21.26 552.985596
21.28 534.889954
21.30 545.156372
21.32 560.225525
21.34 560.726074
21.36 564.426392
21.38 553.704529
21.40 568.093201
21.42 579.007935
21.44 583.257935
21.46 578.415771
21.48 588.643188
21.50 570.528992
21.52 595.948792
21.54 599.445984
21.56 594.24707
21.58 586.918213
21.60 593.643005
21.62 574.167542
21.64 567.277283
21.66 591.561646
21.68 579.408875
21.70 571.405518
21.72 579.648499
21.74 576.674744
21.76 588.615601
21.78 602.613464
21.80 595.62915
21.82 593.327026
21.84 584.299255
21.86 581.681274
21.88 604.911804
21.90 578.302002
21.92 565.300537
21.94 600.204773
21.96 622.017639
21.98 604.268433
22.00 608.88739
22.02 605.201904
22.04 626.92926
22.06 596.981567
22.08 594.157227
22.10 599.051147
22.12 611.768494
22.14 610.479248
22.16 624.463318
22.18 611.434387
22.20 606.805725
22.22 625.570984
22.24 617.087646
22.26 608.451599
22.28 607.505737
22.30 607.959778
22.32 595.388062
22.34 596.546143
22.36 595.501465
22.38 612.369873
22.40 616.614075
22.42 611.233459
22.44 603.837585
22.46 614.852173
22.48 625.324463
22.50 611.16687
22.52 617.557312
22.54 597.495361
22.56 614.142395
22.58 641.251709
22.60 639.092773
22.62 608.774353
22.64 632.10022
22.66 628.173584
22.68 634.352478
22.70 620.097229
22.72 616.75238
22.74 624.070496
22.76 628.578125
22.78 628.546387
22.80 635.764099
22.82 671.583923
22.84 678.47699
22.86 646.265259
22.88 611.157898
22.90 614.744507
22.92 630.909424
22.94 637.233337
22.96 628.824951
22.98 637.655029
23.00 635.226624
23.02 617.654175
23.04 609.211243
23.06 613.080994
23.08 642.838318
23.10 643.769897
23.12 624.777893
23.14 615.893433
23.16 621.57959
23.18 634.765991
23.20 645.897583
23.22 634.076843
23.24 650.022705
23.26 648.108887
23.28 639.494568
23.30 652.905273
23.32 659.916199
23.34 661.713135
23.36 645.82428
23.38 644.281982
23.40 657.28186
23.42 635.68811
23.44 652.390137
23.46 643.656494
23.48 642.298096
23.50 658.697266
23.52 655.923645
23.54 638.846863
23.56 617.089172
23.58 647.965759
23.60 639.255981
23.62 645.908081
23.64 646.528625
23.66 645.490784
23.68 638.850342
23.70 642.64856
23.72 631.300964
23.74 638.281555
23.76 663.481934
23.78 668.424072
23.80 676.474426
23.82 682.763611
23.84 655.937805
23.86 656.197876
23.88 654.627014
23.90 666.719299
23.92 687.114136
23.94 691.257629
23.96 662.266296
23.98 654.21521
24.00 664.540466
24.02 691.802429
24.04 680.466125
24.06 670.413574
24.08 655.389099
24.10 644.431335
24.12 663.941406
24.14 660.957642
24.16 651.905212
24.18 639.712402
24.20 653.511841
24.22 668.695129
24.24 654.559204
24.26 662.341064
24.28 677.803406
24.30 683.902405
24.32 676.577332
24.34 662.681824
24.36 662.13855
24.38 669.434387
24.40 675.039429
24.42 659.16217
24.44 670.334656
24.46 668.533936
24.48 649.553284
24.50 646.276306
24.52 641.255249
24.54 652.395203
24.56 668.009583
24.58 673.303284
24.60 672.324768
24.62 657.024231
24.64 664.434082
24.66 663.933533
24.68 663.652344
24.70 647.675171
24.72 655.600647
24.74 656.467529
24.76 679.515503
24.78 653.991394
24.80 662.674805
24.82 664.467834
24.84 653.288513
24.86 654.38916
24.88 672.85968
24.90 669.142822
24.92 661.339966
24.94 687.01001
24.96 685.934509
24.98 677.463074
25.00 684.025696
25.02 694.385681
25.04 672.405151
25.06 677.856689
25.08 688.918396
25.10 681.694763
25.12 711.147766
25.14 705.076782
25.16 696.787292
25.18 696.177246
25.20 688.58197
25.22 674.493469
25.24 681.472168
25.26 683.125244
25.28 683.028503
25.30 700.723022
25.32 673.904602
25.34 682.640686
25.36 696.71936
25.38 682.193542
25.40 676.814209
25.42 684.349426
25.44 671.375061
25.46 656.209656
25.48 657.290283
25.50 666.965881
25.52 650.410767
25.54 650.035828
25.56 650.923096
25.58 662.986938
25.60 669.790222
25.62 659.286682
25.64 675.137939
25.66 662.04718
25.68 666.470337
25.70 654.395386
25.72 656.999817
25.74 665.01062
25.76 667.726868
25.78 669.673645
25.80 672.04718
25.82 650.401245
25.84 630.019043
25.86 650.474243
25.88 659.619446
25.90 657.925293
25.92 663.664307
25.94 643.358704
25.96 661.630249
25.98 675.704163
26.00 658.353333
26.02 665.286194
26.04 671.559937
26.06 652.383972
26.08 658.130798
26.10 682.81665
26.12 670.440674
26.14 671.291931
26.16 672.157959
26.18 657.099548
26.20 662.593872
26.22 652.394958
26.24 638.042969
26.26 634.925293
26.28 650.367737
26.30 661.181091
26.32 645.804321
26.34 666.769287
26.36 663.854919
26.38 654.899292
26.40 657.458191
26.42 659.038025
26.44 659.949036
26.46 671.615112
26.48 677.626526
26.50 691.948486
26.52 693.370789
26.54 667.045593
26.56 661.251465
26.58 642.608826
26.60 650.059082
26.62 657.803955
26.64 658.608643
26.66 650.333618
26.68 650.53772
26.70 647.183655
26.72 653.758423
26.74 656.050842
26.76 656.026794
26.78 664.663513
26.80 661.123047
26.82 663.47644
26.84 658.937256
26.86 645.489258
26.88 652.999268
26.90 667.816406
26.92 649.752869
26.94 652.35968
26.96 676.281189
26.98 666.255737
27.00 659.590759
27.02 643.276855
27.04 650.315308
27.06 653.44928
27.08 670.992065
27.10 664.034485
27.12 662.889465
27.14 676.989136
27.16 652.523621
27.18 623.699646
27.20 649.679871
27.22 664.388062
27.24 657.384277
27.26 643.376587
27.28 655.839233
27.30 675.917358
27.32 659.30249
27.34 645.949097
27.36 638.233459
27.38 627.629944
27.40 644.565857
27.42 655.014099
27.44 669.032349
27.46 640.760864
27.48 659.08667
27.50 667.495728
27.52 659.966003
27.54 657.794861
27.56 672.697205
27.58 684.092651
27.60 659.610352
27.62 659.603699
27.64 663.768066
27.66 639.82843
27.68 651.915588
27.70 657.665833
27.72 683.053467
27.74 664.818481
27.76 653.923157
27.78 661.020447
27.80 677.194153
27.82 658.541016
27.84 646.941895
27.86 647.855469
27.88 662.677979
27.90 651.460571
27.92 673.239685
27.94 679.761719
27.96 675.399719
27.98 671.658875
28.00 655.295776
28.02 642.345886
28.04 655.315247
28.06 652.563538
28.08 649.065552
28.10 648.136658
28.12 651.050476
28.14 652.669678
28.16 665.666443
28.18 653.16626
28.20 655.767212
28.22 659.109558
28.24 660.924744
28.26 694.94104
28.28 679.940796
28.30 685.131958
28.32 678.444763
28.34 665.440247
28.36 657.222107
28.38 673.77832
28.40 696.991699
28.42 686.63385
28.44 709.423462
28.46 713.937195
28.48 737.295349
28.50 739.933167
28.52 747.699463
28.54 745.758972
28.56 747.265625
28.58 739.93927
28.60 749.341431
28.62 766.137939
28.64 783.43396
28.66 800.907227
28.68 822.323608
28.70 843.501953
28.72 868.300415
28.74 887.991394
28.76 886.573792
28.78 903.101685
28.80 935.229431
28.82 988.591064
28.84 1023.021118
28.86 1059.850098
28.88 1111.371826
28.90 1170.125732
28.92 1247.663086
28.94 1339.282471
28.96 1365.235962
28.98 1421.346802
29.00 1528.115234
29.02 1607.230591
29.04 1659.320923
29.06 1729.024658
29.08 1807.525513
29.10 1858.565186
29.12 1872.203857
29.14 1928.516968
29.16 1952.622925
29.18 1949.119873
29.20 1930.264404
29.22 1856.620117
29.24 1776.931763
29.26 1690.273315
29.28 1589.871216
29.30 1527.605347
29.32 1425.410645
29.34 1340.309204
29.36 1248.395874
29.38 1174.940063
29.40 1105.318481
29.42 1034.64978
29.44 975.335632
29.46 957.264587
29.48 911.397034
29.50 842.231812
29.52 815.197815
29.54 816.481323
29.56 787.109131
29.58 749.763428
29.60 737.698975
29.62 746.994568
29.64 721.837708
29.66 721.622742
29.68 724.04071
29.70 696.156555
29.72 689.907104
29.74 696.237671
29.76 703.273682
29.78 683.726318
29.80 668.346741
29.82 654.935364
29.84 650.177002
29.86 654.516235
29.88 664.320007
29.90 653.877258
29.92 639.680969
29.94 651.739258
29.96 648.77124
29.98 646.429016
30.00 643.51001
30.02 630.676575
30.04 628.578613
30.06 641.49884
30.08 640.661194
30.10 639.261719
30.12 622.858521
30.14 632.053223
30.16 626.548157
30.18 632.087341
30.20 642.402466
30.22 642.236206
30.24 625.015747
30.26 606.585938
30.28 617.47876
30.30 622.399475
30.32 632.667847
30.34 641.72406
30.36 643.827515
30.38 626.914612
30.40 601.587769
30.42 626.992493
30.44 628.950684
30.46 603.496643
30.48 594.269897
30.50 618.433289
30.52 630.064453
30.54 606.803711
30.56 604.517883
30.58 601.013
30.60 606.211487
30.62 607.133667
30.64 606.173401
30.66 609.972168
30.68 606.124939
30.70 594.31842
30.72 584.150696
30.74 584.008545
30.76 596.977356
30.78 596.503662
30.80 586.217712
30.82 582.919312
30.84 587.061951
30.86 597.140503
30.88 598.052979
30.90 607.007996
30.92 598.571533
30.94 600.914185
30.96 598.769592
30.98 590.614807
31.00 598.765137
31.02 593.671936
31.04 590.348755
31.06 601.515747
31.08 607.427917
31.10 611.432739
31.12 608.434204
31.14 613.921448
31.16 602.064819
31.18 605.158936
31.20 607.154785
31.22 596.199829
31.24 599.437073
31.26 600.714233
31.28 592.00824
31.30 592.148865
31.32 591.032288
31.34 611.10791
31.36 586.976624
31.38 596.223572
31.40 601.042664
31.42 617.483459
31.44 590.97168
31.46 576.570618
31.48 586.585327
31.50 603.524963
31.52 583.515259
31.54 576.474243
31.56 570.768372
31.58 570.675964
31.60 570.132385
31.62 583.366699
31.64 578.278748
31.66 577.308044
31.68 573.118042
31.70 574.949524
31.72 559.600952
31.74 559.458252
31.76 581.321716
31.78 573.742432
31.80 571.256897
31.82 573.343506
31.84 578.075684
31.86 562.738586
31.88 565.426208
31.90 576.32605
31.92 580.572388
31.94 575.511658
31.96 581.124817
31.98 568.622498
32.00 578.937683
32.02 582.210876
32.04 586.451538
32.06 584.366455
32.08 574.141968
32.10 578.223694
32.12 578.454834
32.14 566.570068
32.16 574.619507
32.18 573.452209
32.20 574.402161
32.22 572.167603
32.24 592.402893
32.26 602.013855
32.28 583.624023
32.30 588.372742
32.32 580.691223
32.34 595.053223
32.36 588.780518
32.38 580.346252
32.40 594.983582
32.42 606.763489
32.44 599.243713
32.46 600.706116
32.48 614.192749
32.50 617.470276
32.52 614.360474
32.54 622.726013
32.56 605.438416
32.58 606.63446
32.60 606.340332
32.62 617.052063
32.64 618.095093
32.66 618.23407
32.68 603.439026
32.70 628.810486
32.72 631.454895
32.74 632.140381
32.76 620.716797
32.78 611.245117
32.80 608.738159
32.82 593.984009
32.84 570.713928
32.86 579.756775
32.88 564.752075
32.90 562.171143
32.92 577.991821
32.94 587.693298
32.96 567.853088
32.98 558.375183
33.00 539.238586
33.02 552.001343
33.04 561.884216
33.06 558.530396
33.08 538.039124
33.10 544.586914
33.12 540.429321
33.14 533.671814
33.16 540.60199
33.18 555.659485
33.20 544.909302
33.22 536.445129
33.24 523.905579
33.26 521.287415
33.28 531.72229
33.30 536.717285
33.32 535.340149
33.34 531.362366
33.36 527.726624
33.38 511.54306
33.40 500.675873
33.42 506.790649
33.44 516.686646
33.46 529.408325
33.48 519.495239
33.50 526.442627
33.52 518.569214
33.54 509.381012
33.56 508.571259
33.58 499.909973
33.60 514.664063
33.62 518.482422
33.64 517.280945
33.66 509.613831
33.68 500.980896
33.70 492.335968
33.72 496.128357
33.74 513.43457
33.76 517.59845
33.78 513.319824
33.80 498.703003
33.82 506.940399
33.84 508.997101
33.86 492.887665
33.88 495.123993
33.90 486.128448
33.92 507.721161
33.94 521.725098
33.96 510.381073
33.98 490.946564
34.00 483.914215
34.02 502.8414
34.04 501.387207
34.06 496.303162
34.08 500.818481
34.10 495.57016
34.12 508.704315
34.14 499.715057
34.16 497.380188
34.18 486.259827
34.20 495.407257
34.22 496.955048
34.24 484.33847
34.26 502.446167
34.28 499.626587
34.30 497.00177
34.32 490.435028
34.34 482.13327
34.36 491.06488
34.38 487.34552
34.40 462.966095
34.42 466.341278
34.44 484.544891
34.46 488.51767
34.48 480.807983
34.50 469.606659
34.52 478.497772
34.54 468.537628
34.56 467.322113
34.58 483.524475
34.60 481.393555
34.62 485.348969
34.64 482.320374
34.66 476.427521
34.68 475.165283
34.70 478.12561
34.72 472.065155
34.74 469.483826
34.76 466.431396
34.78 468.652649
34.80 464.173309
34.82 471.791138
34.84 475.604248
34.86 465.873627
34.88 462.98526
34.90 466.874969
34.92 470.326294
34.94 466.304077
34.96 448.066315
34.98 458.193573
35.00 452.652588
35.02 458.612488
35.04 468.997345
35.06 456.789764
35.08 449.00769
35.10 455.025604
35.12 453.43045
35.14 453.984619
35.16 429.250092
35.18 439.303955
35.20 450.52533
35.22 468.802368
35.24 477.451019
35.26 464.184113
35.28 448.631104
35.30 449.466614
35.32 456.43277
35.34 458.0625
35.36 460.763489
35.38 446.474945
35.40 447.106903
35.42 449.616272
35.44 430.299103
35.46 437.082825
35.48 453.24176
35.50 441.847687
35.52 424.084686
35.54 432.823395
35.56 442.434174
35.58 454.07309
35.60 434.576019
35.62 440.878967
35.64 453.519409
35.66 437.619019
35.68 439.966431
35.70 438.018402
35.72 427.458313
35.74 434.183258
35.76 436.619202
35.78 443.444397
35.80 439.399902
35.82 440.322571
35.84 430.223328
35.86 423.534943
35.88 420.281555
35.90 441.330872
35.92 446.224823
35.94 449.575165
35.96 449.532349
35.98 448.26944
36.00 436.200989
36.02 439.678467
36.04 446.231567
36.06 427.168732
36.08 423.626373
36.10 432.042603
36.12 439.421051
36.14 429.71463
36.16 424.272308
36.18 409.455719
36.20 415.043213
36.22 420.601654
36.24 425.229858
36.26 415.022461
36.28 412.653259
36.30 417.849182
36.32 425.331024
36.34 414.200867
36.36 401.512512
36.38 394.100006
36.40 407.177216
36.42 396.509247
36.44 407.705811
36.46 420.003326
36.48 421.497314
36.50 414.914703
36.52 406.078491
36.54 405.706635
36.56 409.194397
36.58 411.516785
36.60 420.979736
36.62 417.214569
36.64 401.391022
36.66 407.572174
36.68 415.378204
36.70 405.586121
36.72 406.876617
36.74 426.019989
36.76 408.837646
36.78 380.645386
36.80 377.579742
36.82 392.637573
36.84 409.404327
36.86 394.168518
36.88 390.567932
36.90 397.480194
36.92 384.075043
36.94 376.591949
36.96 377.743439
36.98 381.62973
37.00 372.736694
37.02 368.569153
37.04 389.967224
37.06 397.598145
37.08 388.322876
37.10 387.819336
37.12 387.083221
37.14 380.781311
37.16 387.625977
37.18 395.97171
37.20 395.762939
37.22 389.235046
37.24 382.274597
37.26 374.887573
37.28 396.720245
37.30 386.862518
37.32 381.976471
37.34 370.227692
37.36 381.7948
37.38 393.083191
37.40 375.942902
37.42 369.810791
37.44 383.709015
37.46 373.164307
37.48 367.880219
37.50 372.166321
37.52 371.494629
37.54 382.714661
37.56 390.894806
37.58 385.382721
37.60 375.430817
37.62 366.094452
37.64 375.125702
37.66 372.027191
37.68 378.7854
37.70 371.742035
37.72 373.6091
37.74 376.395264
37.76 360.979797
37.78 354.893646
37.80 353.152588
37.82 363.332306
37.84 378.730469
37.86 367.968292
37.88 363.167297
37.90 364.454407
37.92 357.884064
37.94 363.927795
37.96 375.642944
37.98 365.952148
38.00 373.516174
38.02 360.081268
38.04 360.245575
38.06 363.839661
38.08 358.555847
38.10 369.253906
38.12 353.888885
38.14 352.476715
38.16 353.89917
38.18 363.474792
38.20 368.578003
38.22 367.314911
38.24 351.741272
38.26 348.310638
38.28 355.407166
38.30 357.903503
38.32 363.192352
38.34 368.409485
38.36 366.402649
38.38 355.632599
38.40 349.888245
38.42 357.675201
38.44 368.377747
38.46 366.182343
38.48 357.787292
38.50 349.074768
38.52 370.112823
38.54 363.824585
38.56 359.271301
38.58 354.066498
38.60 357.641998
38.62 356.542603
38.64 345.914429
38.66 357.451385
38.68 358.304871
38.70 364.819397
38.72 349.224396
38.74 350.194763
38.76 356.426849
38.78 345.001129
38.80 340.374176
38.82 352.41626
38.84 348.153351
38.86 352.619293
38.88 346.997986
38.90 343.47937
38.92 338.602081
38.94 344.112396
38.96 345.911987
38.98 352.08548
39.00 348.723602
39.02 342.564423
39.04 341.364044
39.06 340.425415
39.08 350.103302
39.10 341.407654
39.12 341.250641
39.14 342.113281
39.16 333.147766
39.18 334.30368
39.20 331.406128
39.22 351.62854
39.24 348.885315
39.26 339.207642
39.28 340.886108
39.30 348.891479
39.32 341.73407
39.34 339.266083
39.36 341.921783
39.38 338.702454
39.40 347.148376
39.42 352.059052
39.44 351.335693
39.46 346.829712
39.48 332.574127
39.50 345.414948
39.52 339.636444
39.54 342.226105
39.56 349.391052
39.58 349.316681
39.60 342.687225
39.62 333.211548
39.64 327.678223
39.66 345.284119
39.68 344.287872
39.70 345.252167
39.72 332.563263
39.74 343.552368
39.76 351.311523
39.78 339.018982
39.80 330.317841
39.82 340.339203
39.84 340.505676
39.86 336.820496
39.88 348.85022
39.90 347.771606
39.92 347.044281
39.94 356.70575
39.96 348.147827
39.98 336.755646
40.00 330.320465
