!@!!GADDS PLOTSO FILE: Chi integration type
!@!!Title/SampleName: ML_MAPbX3
!@!!User: NREL
!@!!Site: NREL SERF C211; SN 2510
!@!!Frame: 081022_MLProject_000_017.gfrm
!@!!Wavelengths    1.54184   1.54056   1.54439
!@!!Frame angles: 2Theta: 28.000 Omega: 5.000 Phi: 0.000 Chi: 90.000
!@!!Integration range: 2Theta: 10.000 to 40.000  Gamma: -135.000 to -45.000
!@!!Integration method: bin normalized
!@!N
!@!SS
!@!M
!@!L 0.0 0.0 0.0 0.0
!@!XDegrees
!@!YCounts
10.00 169.18541
10.02 166.619995
10.04 164.075302
10.06 167.093933
10.08 160.421829
10.10 165.803192
10.12 162.448318
10.14 161.153183
10.16 167.473083
10.18 167.23494
10.20 168.854355
10.22 168.715454
10.24 165.664841
10.26 170.248795
10.28 176.656677
10.30 181.02681
10.32 176.635925
10.34 168.89299
10.36 171.273972
10.38 168.42186
10.40 176.816895
10.42 178.231186
10.44 169.848892
10.46 176.801758
10.48 182.082306
10.50 184.180161
10.52 170.944275
10.54 172.022064
10.56 174.421432
10.58 183.017059
10.60 186.276413
10.62 186.742432
10.64 185.71521
10.66 180.333191
10.68 180.463989
10.70 184.237885
10.72 185.726852
10.74 182.527344
10.76 181.052109
10.78 178.589294
10.80 190.122589
10.82 190.967331
10.84 182.302002
10.86 188.827042
10.88 196.670197
10.90 191.956558
10.92 185.316818
10.94 191.744141
10.96 188.252304
10.98 190.773376
11.00 189.522446
11.02 197.892349
11.04 194.048294
11.06 193.163895
11.08 194.744507
11.10 204.514633
11.12 201.77623
11.14 200.388535
11.16 202.112427
11.18 205.367981
11.20 197.650833
11.22 200.20462
11.24 197.104385
11.26 192.785889
11.28 203.293686
11.30 211.615921
11.32 211.664673
11.34 196.749115
11.36 205.31102
11.38 204.292709
11.40 206.779236
11.42 202.727356
11.44 206.293793
11.46 213.643295
11.48 213.908539
11.50 210.265015
11.52 208.808228
11.54 199.104736
11.56 202.974747
11.58 203.129028
11.60 209.233185
11.62 215.401031
11.64 215.683105
11.66 216.556808
11.68 223.396942
11.70 225.529053
11.72 224.231949
11.74 222.830673
11.76 228.199722
11.78 222.424789
11.80 226.68222
11.82 231.978195
11.84 223.374832
11.86 218.813828
11.88 222.559158
11.90 225.964478
11.92 238.66188
11.94 241.219894
11.96 244.043503
11.98 243.077469
12.00 244.891953
12.02 254.817474
12.04 259.058441
12.06 265.414185
12.08 257.742737
12.10 262.644196
12.12 273.995483
12.14 284.023743
12.16 288.413391
12.18 280.533539
12.20 279.396484
12.22 296.751251
12.24 317.221497
12.26 324.468781
12.28 321.390503
12.30 328.965546
12.32 339.818726
12.34 364.795502
12.36 379.381744
12.38 389.018921
12.40 399.202942
12.42 408.830719
12.44 430.387451
12.46 444.577393
12.48 469.831512
12.50 493.406494
12.52 496.45462
12.54 507.697235
12.56 520.856445
12.58 536.519714
12.60 529.256653
12.62 517.130371
12.64 507.447632
12.66 496.225342
12.68 489.686157
12.70 465.844849
12.72 448.612457
12.74 430.595734
12.76 424.466431
12.78 397.285004
12.80 382.243683
12.82 366.007874
12.84 352.057556
12.86 340.806
12.88 327.161285
12.90 312.577393
12.92 300.21991
12.94 282.484253
12.96 274.960114
12.98 271.653595
13.00 273.46228
13.02 273.129486
13.04 266.963196
13.06 272.55957
13.08 265.271088
13.10 255.863831
13.12 266.765869
13.14 263.517639
13.16 262.127991
13.18 259.916229
13.20 258.133026
13.22 256.691437
13.24 257.813965
13.26 262.791748
13.28 255.730057
13.30 254.659714
13.32 257.197784
13.34 250.492447
13.36 256.481567
13.38 258.561768
13.40 253.324768
13.42 254.377167
13.44 248.306839
13.46 251.286377
13.48 255.866425
13.50 250.848145
13.52 261.420959
13.54 266.885162
13.56 259.850128
13.58 261.649933
13.60 266.768494
13.62 261.512787
13.64 262.888306
13.66 264.066406
13.68 267.730042
13.70 275.339539
13.72 282.378906
13.74 281.317719
13.76 279.860687
13.78 276.138977
13.80 279.788239
13.82 283.255646
13.84 291.520752
13.86 295.088257
13.88 299.059387
13.90 301.45462
13.92 302.336334
13.94 302.652557
13.96 307.766968
13.98 312.914032
14.00 320.88092
14.02 327.494812
14.04 333.91153
14.06 337.151001
14.08 339.814575
14.10 348.62912
14.12 352.93042
14.14 368.069092
14.16 383.047363
14.18 384.651489
14.20 381.273438
14.22 406.47348
14.24 426.972382
14.26 435.482605
14.28 440.601074
14.30 439.250824
14.32 444.100769
14.34 450.292389
14.36 453.662415
14.38 456.145538
14.40 451.594452
14.42 430.812866
14.44 422.8284
14.46 428.170197
14.48 411.526581
14.50 404.123322
14.52 399.50882
14.54 380.85791
14.56 364.790344
14.58 362.647858
14.60 363.353607
14.62 359.964203
14.64 357.985626
14.66 354.421234
14.68 344.998566
14.70 341.727509
14.72 350.879456
14.74 353.813293
14.76 347.988983
14.78 358.00293
14.80 353.805481
14.82 352.364014
14.84 358.319
14.86 372.535614
14.88 376.488098
14.90 376.133728
14.92 384.660522
14.94 394.189117
14.96 403.551636
14.98 410.342499
15.00 418.866638
15.02 419.394897
15.04 428.620392
15.06 445.006683
15.08 460.86911
15.10 469.007172
15.12 471.804626
15.14 473.875336
15.16 487.72403
15.18 491.712524
15.20 503.56842
15.22 506.287018
15.24 503.016022
15.26 499.005188
15.28 485.695404
15.30 483.897827
15.32 479.342041
15.34 459.13269
15.36 446.242615
15.38 443.037872
15.40 436.017914
15.42 413.091583
15.44 393.748993
15.46 390.115814
15.48 376.645874
15.50 359.682037
15.52 349.064392
15.54 348.927765
15.56 342.407532
15.58 333.8396
15.60 322.829773
15.62 318.338684
15.64 321.149261
15.66 320.57309
15.68 320.902832
15.70 321.275269
15.72 316.224579
15.74 311.743347
15.76 311.500977
15.78 312.849121
15.80 311.001556
15.82 309.41156
15.84 305.348663
15.86 302.602417
15.88 307.908325
15.90 309.811981
15.92 307.08667
15.94 308.127502
15.96 312.181335
15.98 309.933624
16.00 309.342957
16.02 308.749847
16.04 309.848206
16.06 306.9505
16.08 300.560394
16.10 306.518402
16.12 306.879944
16.14 301.070618
16.16 306.594696
16.18 302.353546
16.20 319.052765
16.22 314.871582
16.24 306.110352
16.26 306.990601
16.28 315.187592
16.30 311.946716
16.32 313.283569
16.34 310.240204
16.36 311.84079
16.38 311.982544
16.40 307.359009
16.42 310.577576
16.44 315.20755
16.46 310.490204
16.48 308.949341
16.50 309.797363
16.52 312.068085
16.54 314.236237
16.56 320.170227
16.58 317.317535
16.60 315.284271
16.62 312.533478
16.64 313.768738
16.66 324.88269
16.68 319.840546
16.70 317.093994
16.72 320.904175
16.74 323.77771
16.76 323.51532
16.78 316.182892
16.80 321.655731
16.82 314.363403
16.84 322.797302
16.86 329.23175
16.88 315.200104
16.90 319.778961
16.92 324.974121
16.94 324.229004
16.96 327.370575
16.98 332.126068
17.00 330.200409
17.02 332.748962
17.04 331.023132
17.06 327.809998
17.08 331.803711
17.10 333.37738
17.12 336.550995
17.14 340.284912
17.16 335.925079
17.18 329.327667
17.20 335.645416
17.22 337.64975
17.24 323.969666
17.26 334.205322
17.28 342.056976
17.30 339.132935
17.32 347.412903
17.34 343.216095
17.36 338.579102
17.38 330.122406
17.40 329.423981
17.42 338.531677
17.44 342.756073
17.46 351.420654
17.48 345.772247
17.50 347.105072
17.52 352.465851
17.54 346.124725
17.56 345.567017
17.58 340.19696
17.60 334.394257
17.62 334.439819
17.64 343.728485
17.66 351.874329
17.68 359.219086
17.70 357.64505
17.72 356.77652
17.74 356.931
17.76 359.991119
17.78 353.829376
17.80 357.27475
17.82 361.811737
17.84 352.78775
17.86 350.953003
17.88 354.332581
17.90 350.943451
17.92 361.300812
17.94 363.659607
17.96 356.149658
17.98 353.161926
18.00 357.794403
18.02 361.771484
18.04 358.263702
18.06 360.505371
18.08 360.51004
18.10 363.829468
18.12 362.346313
18.14 357.399994
18.16 356.738831
18.18 361.150543
18.20 367.642639
18.22 367.877747
18.24 364.418457
18.26 365.067078
18.28 371.418732
18.30 376.529724
18.32 365.636383
18.34 367.780396
18.36 372.95694
18.38 380.575928
18.40 378.239532
18.42 387.246918
18.44 378.341522
18.46 376.684814
18.48 386.00174
18.50 381.4776
18.52 370.972656
18.54 371.087036
18.56 370.307678
18.58 373.763306
18.60 378.887299
18.62 380.147339
18.64 379.737854
18.66 372.334534
18.68 378.408997
18.70 385.980652
18.72 379.224731
18.74 373.162903
18.76 382.537476
18.78 383.740021
18.80 388.675354
18.82 389.142578
18.84 391.171295
18.86 389.997253
18.88 392.109558
18.90 390.328857
18.92 391.50885
18.94 390.022614
18.96 393.890289
18.98 410.302246
19.00 405.614044
19.02 403.307739
19.04 398.791809
19.06 396.788971
19.08 400.813995
19.10 405.32724
19.12 404.059296
19.14 400.59491
19.16 394.467743
19.18 402.697662
19.20 408.418243
19.22 402.167725
19.24 410.924255
19.26 410.875031
19.28 411.385895
19.30 408.391968
19.32 414.260864
19.34 413.987854
19.36 419.746887
19.38 411.865326
19.40 408.458862
19.42 412.544037
19.44 417.668518
19.46 418.496277
19.48 420.72522
19.50 421.87027
19.52 424.164886
19.54 427.650085
19.56 419.782745
19.58 422.040741
19.60 424.152649
19.62 418.735748
19.64 425.34137
19.66 431.362
19.68 425.973816
19.70 420.422882
19.72 425.459534
19.74 421.031738
19.76 425.904419
19.78 435.593658
19.80 436.27948
19.82 437.465546
19.84 442.706268
19.86 440.688324
19.88 432.987183
19.90 427.494629
19.92 436.676056
19.94 442.023254
19.96 444.296143
19.98 445.821228
20.00 442.170074
20.02 444.573761
20.04 445.925537
20.06 444.277649
20.08 449.425415
20.10 448.957397
20.12 447.275269
20.14 454.924133
20.16 457.714966
20.18 461.254303
20.20 456.0336
20.22 465.713013
20.24 467.227783
20.26 464.488495
20.28 470.213287
20.30 464.958954
20.32 461.636841
20.34 464.900269
20.36 458.704498
20.38 464.023804
20.40 466.295746
20.42 467.568848
20.44 469.055023
20.46 462.205078
20.48 459.068695
20.50 466.768036
20.52 475.953857
20.54 481.240662
20.56 473.56189
20.58 472.664459
20.60 471.496002
20.62 467.82016
20.64 466.99411
20.66 471.170349
20.68 472.4487
20.70 479.712189
20.72 481.559814
20.74 479.937073
20.76 470.695831
20.78 475.505157
20.80 494.054718
20.82 482.813873
20.84 482.510925
20.86 481.275726
20.88 492.19165
20.90 482.104034
20.92 475.530792
20.94 483.993408
20.96 488.388092
20.98 485.078003
21.00 497.218933
21.02 502.759247
21.04 500.401367
21.06 492.772308
21.08 491.925903
21.10 487.15918
21.12 488.450348
21.14 497.897797
21.16 508.670563
21.18 502.093353
21.20 487.425537
21.22 495.636108
21.24 510.25528
21.26 512.993713
21.28 508.934937
21.30 503.35672
21.32 504.034241
21.34 508.840179
21.36 510.400085
21.38 509.241272
21.40 502.847137
21.42 499.396057
21.44 516.558655
21.46 517.693481
21.48 523.029236
21.50 523.917297
21.52 520.078125
21.54 523.386597
21.56 528.290466
21.58 517.031921
21.60 518.900208
21.62 514.699158
21.64 511.361725
21.66 518.435181
21.68 521.364319
21.70 524.187683
21.72 521.064697
21.74 521.813904
21.76 525.192505
21.78 522.76416
21.80 520.404907
21.82 520.204407
21.84 522.205811
21.86 527.508667
21.88 523.984863
21.90 530.315186
21.92 530.213928
21.94 530.374512
21.96 524.202332
21.98 538.804749
22.00 540.708557
22.02 536.4151
22.04 531.396606
22.06 534.347839
22.08 538.660339
22.10 522.887085
22.12 532.515198
22.14 538.148193
22.16 533.610229
22.18 537.261597
22.20 546.529663
22.22 544.493774
22.24 533.130188
22.26 531.285522
22.28 546.707092
22.30 549.212585
22.32 540.348511
22.34 542.665405
22.36 542.775146
22.38 546.035461
22.40 544.338196
22.42 541.780334
22.44 552.713623
22.46 557.134827
22.48 552.135742
22.50 557.508911
22.52 548.17688
22.54 548.816101
22.56 547.53064
22.58 555.280151
22.60 553.151306
22.62 550.789856
22.64 548.999756
22.66 549.64093
22.68 554.28833
22.70 561.030884
22.72 562.426331
22.74 552.552307
22.76 555.856384
22.78 550.09021
22.80 548.786133
22.82 557.64032
22.84 557.430237
22.86 559.986328
22.88 565.835083
22.90 560.761658
22.92 561.4328
22.94 550.779358
22.96 555.144592
22.98 570.079224
23.00 576.258789
23.02 569.712585
23.04 566.938904
23.06 562.907898
23.08 567.269592
23.10 562.192139
23.12 560.957214
23.14 565.765137
23.16 562.572449
23.18 573.052124
23.20 573.696899
23.22 574.260864
23.24 579.220337
23.26 572.197449
23.28 560.016174
23.30 570.066589
23.32 575.071411
23.34 574.160583
23.36 569.709534
23.38 568.77002
23.40 574.873718
23.42 569.260315
23.44 576.784546
23.46 580.719116
23.48 580.5979
23.50 569.93512
23.52 566.970703
23.54 567.528931
23.56 577.613281
23.58 583.93042
23.60 585.249573
23.62 587.397827
23.64 584.903931
23.66 586.063904
23.68 583.730042
23.70 581.790649
23.72 585.659485
23.74 588.489014
23.76 581.618652
23.78 576.905762
23.80 580.541321
23.82 584.851807
23.84 584.813904
23.86 583.734558
23.88 588.60022
23.90 582.272339
23.92 579.404907
23.94 577.939453
23.96 576.461304
23.98 590.255676
24.00 587.585388
24.02 584.167297
24.04 586.624939
24.06 588.360535
24.08 588.140381
24.10 596.158325
24.12 589.028625
24.14 584.873535
24.16 582.023743
24.18 575.252869
24.20 570.514404
24.22 581.042053
24.24 581.762329
24.26 594.187317
24.28 604.641235
24.30 608.289001
24.32 602.299011
24.34 591.648926
24.36 584.61554
24.38 596.684692
24.40 602.582703
24.42 597.990662
24.44 597.707458
24.46 590.288208
24.48 590.915039
24.50 595.4422
24.52 591.394165
24.54 587.970276
24.56 601.56488
24.58 607.5578
24.60 597.715332
24.62 594.517212
24.64 594.704102
24.66 592.823792
24.68 592.684814
24.70 591.625488
24.72 585.077698
24.74 591.982239
24.76 593.253174
24.78 605.701477
24.80 598.950867
24.82 596.012573
24.84 592.70636
24.86 596.671936
24.88 608.42865
24.90 606.149536
24.92 606.224915
24.94 600.24585
24.96 598.498718
24.98 589.969727
25.00 590.64502
25.02 598.537231
25.04 601.391724
25.06 605.534912
25.08 600.105957
25.10 602.48938
25.12 611.20343
25.14 605.038269
25.16 602.474731
25.18 600.092468
25.20 608.49353
25.22 608.933533
25.24 610.665466
25.26 612.436035
25.28 602.747559
25.30 605.822449
25.32 604.68396
25.34 607.815796
25.36 603.587646
25.38 610.737549
25.40 604.481018
25.42 598.384827
25.44 597.691772
25.46 606.632324
25.48 606.927002
25.50 601.652649
25.52 608.246887
25.54 606.828186
25.56 602.717041
25.58 611.231628
25.60 615.130859
25.62 610.992981
25.64 604.757446
25.66 607.09259
25.68 609.53772
25.70 613.675476
25.72 612.796204
25.74 606.413757
25.76 605.943359
25.78 606.677673
25.80 607.262878
25.82 605.509277
25.84 602.145203
25.86 604.010437
25.88 598.109009
25.90 601.599548
25.92 607.094543
25.94 598.401062
25.96 602.116211
25.98 609.070251
26.00 606.084045
26.02 605.480469
26.04 611.814636
26.06 608.827454
26.08 609.502563
26.10 606.260315
26.12 605.297119
26.14 603.901428
26.16 605.289795
26.18 605.753113
26.20 613.416321
26.22 614.739807
26.24 608.120056
26.26 610.639709
26.28 610.682678
26.30 610.352661
26.32 597.799744
26.34 601.404724
26.36 594.886536
26.38 597.820862
26.40 593.400452
26.42 601.90448
26.44 606.814209
26.46 604.085083
26.48 609.017883
26.50 605.468689
26.52 590.415161
26.54 591.702332
26.56 590.455322
26.58 598.817505
26.60 599.819641
26.62 592.955261
26.64 601.855286
26.66 605.520508
26.68 596.718628
26.70 584.226501
26.72 585.612244
26.74 588.944641
26.76 589.835205
26.78 591.11676
26.80 592.734741
26.82 589.511902
26.84 593.121277
26.86 591.866211
26.88 589.217529
26.90 583.703125
26.92 584.667542
26.94 587.896484
26.96 596.25238
26.98 595.489014
27.00 588.528381
27.02 591.342957
27.04 595.053528
27.06 591.148987
27.08 594.891602
27.10 592.502686
27.12 589.441223
27.14 586.697571
27.16 584.655212
27.18 582.822998
27.20 579.026062
27.22 576.797974
27.24 588.375061
27.26 589.726868
27.28 587.928162
27.30 583.714539
27.32 589.697083
27.34 593.133362
27.36 590.881104
27.38 591.451355
27.40 585.201721
27.42 588.28009
27.44 590.231018
27.46 597.193359
27.48 600.674255
27.50 600.07782
27.52 598.669006
27.54 590.918762
27.56 590.807739
27.58 587.060913
27.60 584.114014
27.62 587.665466
27.64 587.171387
27.66 594.873169
27.68 595.229492
27.70 593.244873
27.72 586.181458
27.74 588.827271
27.76 586.370422
27.78 585.438965
27.80 596.471924
27.82 588.149475
27.84 584.581726
27.86 585.005371
27.88 588.860413
27.90 585.874878
27.92 587.125366
27.94 585.703674
27.96 580.160828
27.98 587.059631
28.00 593.417053
28.02 583.769226
28.04 589.028137
28.06 592.330505
28.08 584.100159
28.10 581.839844
28.12 592.744995
28.14 583.862183
28.16 582.267212
28.18 582.572388
28.20 582.601868
28.22 587.803894
28.24 587.394165
28.26 579.023376
28.28 588.324402
28.30 593.375916
28.32 587.050964
28.34 584.370483
28.36 583.312988
28.38 587.401489
28.40 593.098755
28.42 593.640808
28.44 595.058472
28.46 591.859314
28.48 596.84198
28.50 593.250427
28.52 587.283203
28.54 587.77124
28.56 596.370605
28.58 592.087097
28.60 597.395935
28.62 597.751099
28.64 599.515076
28.66 608.939148
28.68 622.48938
28.70 623.485901
28.72 619.799622
28.74 618.852478
28.76 626.454651
28.78 632.905762
28.80 639.476624
28.82 650.738464
28.84 647.19342
28.86 642.22876
28.88 647.479919
28.90 663.380371
28.92 668.106445
28.94 661.956787
28.96 661.166931
28.98 658.626343
29.00 646.64801
29.02 646.037415
29.04 642.78418
29.06 636.91217
29.08 632.419373
29.10 627.756348
29.12 621.834045
29.14 610.762817
29.16 606.765991
29.18 601.032349
29.20 605.277954
29.22 602.651611
29.24 602.656677
29.26 599.174927
29.28 592.020996
29.30 586.693909
29.32 585.386475
29.34 585.868164
29.36 580.920471
29.38 577.458801
29.40 577.213135
29.42 572.541687
29.44 573.68988
29.46 580.871826
29.48 576.439026
29.50 577.380737
29.52 579.491455
29.54 573.745972
29.56 575.675354
29.58 576.829834
29.60 573.959106
29.62 572.139282
29.64 572.634644
29.66 565.755127
29.68 564.3125
29.70 558.835266
29.72 557.426514
29.74 563.2323
29.76 571.539124
29.78 568.95105
29.80 557.041565
29.82 561.135803
29.84 561.243286
29.86 573.706787
29.88 565.861633
29.90 562.497131
29.92 559.337646
29.94 553.451294
29.96 560.181091
29.98 567.382385
30.00 558.952698
30.02 556.880676
30.04 551.334595
30.06 551.701904
30.08 552.386414
30.10 550.38501
30.12 553.523132
30.14 561.166199
30.16 562.000427
30.18 552.131958
30.20 552.317505
30.22 557.761047
30.24 557.764099
30.26 547.566345
30.28 551.964905
30.30 549.307373
30.32 551.674561
30.34 558.966858
30.36 558.577637
30.38 562.944275
30.40 565.163879
30.42 561.594482
30.44 558.928284
30.46 561.175476
30.48 553.184265
30.50 551.060791
30.52 552.371948
30.54 563.620789
30.56 568.254883
30.58 568.616028
30.60 569.752319
30.62 578.712952
30.64 587.184326
30.66 587.467773
30.68 584.697937
30.70 589.015381
30.72 586.484497
30.74 587.588989
30.76 585.616943
30.78 585.790588
30.80 591.501953
30.82 598.69104
30.84 590.418091
30.86 576.556091
30.88 579.470398
30.90 581.119019
30.92 579.013855
30.94 573.557434
30.96 571.231323
30.98 561.987122
31.00 559.886597
31.02 560.839905
31.04 556.335815
31.06 547.530151
31.08 541.013367
31.10 535.749084
31.12 528.718384
31.14 535.227844
31.16 532.106323
31.18 530.414551
31.20 534.654541
31.22 530.917297
31.24 528.22467
31.26 520.373657
31.28 513.923645
31.30 516.715271
31.32 514.412842
31.34 514.880737
31.36 517.82019
31.38 523.312927
31.40 514.663696
31.42 518.589233
31.44 510.858917
31.46 514.30835
31.48 513.048035
31.50 513.207825
31.52 509.947052
31.54 505.239716
31.56 511.970917
31.58 513.161865
31.60 506.342468
31.62 506.30545
31.64 507.982239
31.66 508.30603
31.68 512.93335
31.70 513.167664
31.72 503.530823
31.74 500.286041
31.76 502.618866
31.78 504.328094
31.80 502.822052
31.82 506.597656
31.84 506.092621
31.86 510.685913
31.88 509.366486
31.90 508.264679
31.92 501.746399
31.94 512.339355
31.96 512.611389
31.98 513.940125
32.00 513.330811
32.02 499.978546
32.04 503.635406
32.06 509.485931
32.08 512.844299
32.10 519.161499
32.12 514.143799
32.14 509.560272
32.16 510.954102
32.18 514.721985
32.20 515.871948
32.22 518.820679
32.24 519.421082
32.26 520.563599
32.28 522.888611
32.30 526.655457
32.32 528.598572
32.34 523.633667
32.36 521.220642
32.38 523.491821
32.40 520.142761
32.42 517.210938
32.44 527.003235
32.46 527.0271
32.48 525.630676
32.50 515.755615
32.52 511.711182
32.54 515.048035
32.56 507.777466
32.58 506.070648
32.60 508.510132
32.62 509.62265
32.64 509.188049
32.66 505.216614
32.68 498.321259
32.70 503.638458
32.72 504.368927
32.74 507.347198
32.76 492.473907
32.78 489.998077
32.80 492.845215
32.82 499.582184
32.84 495.018524
32.86 486.359222
32.88 483.760742
32.90 491.836914
32.92 491.847717
32.94 483.211884
32.96 482.032074
32.98 482.423615
33.00 484.585541
33.02 491.761566
33.04 493.29718
33.06 484.965332
33.08 483.867126
33.10 482.660583
33.12 485.218262
33.14 478.100311
33.16 475.236359
33.18 474.757507
33.20 465.027771
33.22 481.726379
33.24 482.54895
33.26 471.168854
33.28 469.751038
33.30 471.156097
33.32 472.963135
33.34 476.045197
33.36 476.584808
33.38 475.758209
33.40 474.645569
33.42 470.478333
33.44 472.219086
33.46 469.574036
33.48 468.252167
33.50 471.283844
33.52 473.967529
33.54 466.959595
33.56 466.923981
33.58 468.279205
33.60 459.585663
33.62 458.157135
33.64 456.963043
33.66 456.418884
33.68 455.585236
33.70 461.146759
33.72 459.316406
33.74 457.61673
33.76 465.525024
33.78 464.68396
33.80 451.25943
33.82 455.074036
33.84 462.373108
33.86 467.058228
33.88 470.011627
33.90 464.610504
33.92 459.155945
33.94 464.953918
33.96 463.784302
33.98 457.162415
34.00 454.369232
34.02 450.982513
34.04 449.317413
34.06 449.532074
34.08 458.473206
34.10 457.675873
34.12 458.058258
34.14 456.66394
34.16 462.028442
34.18 461.774323
34.20 458.47348
34.22 462.95459
34.24 457.382416
34.26 463.75061
34.28 463.69339
34.30 459.646118
34.32 454.201569
34.34 449.430023
34.36 458.36087
34.38 463.523682
34.40 463.057434
34.42 460.038605
34.44 456.005157
34.46 457.75116
34.48 459.748291
34.50 449.459412
34.52 460.957642
34.54 460.644043
34.56 453.646912
34.58 453.028473
34.60 455.325928
34.62 457.74469
34.64 461.447906
34.66 447.835358
34.68 442.45578
34.70 444.584503
34.72 447.410645
34.74 444.75589
34.76 443.095367
34.78 449.245941
34.80 439.934326
34.82 435.182526
34.84 438.894318
34.86 438.212006
34.88 437.51123
34.90 437.037872
34.92 433.505524
34.94 428.45639
34.96 430.592987
34.98 430.36496
35.00 430.445831
35.02 419.98819
35.04 419.584381
35.06 427.908325
35.08 428.040558
35.10 420.526154
35.12 417.915344
35.14 417.206879
35.16 419.992798
35.18 426.145996
35.20 419.697113
35.22 421.851563
35.24 420.361359
35.26 419.72641
35.28 417.838989
35.30 417.243988
35.32 419.805115
35.34 418.832092
35.36 409.404572
35.38 417.781982
35.40 417.261719
35.42 411.508514
35.44 406.946014
35.46 410.835632
35.48 411.618866
35.50 411.718048
35.52 415.082977
35.54 406.11203
35.56 407.960724
35.58 405.601746
35.60 399.974762
35.62 397.733307
35.64 400.269012
35.66 400.593414
35.68 401.850403
35.70 407.259857
35.72 411.022339
35.74 400.555145
35.76 404.600922
35.78 403.1875
35.80 398.551056
35.82 396.650787
35.84 392.363861
35.86 394.647675
35.88 392.257172
35.90 388.240845
35.92 398.23172
35.94 395.76416
35.96 393.434998
35.98 393.836273
36.00 393.945587
36.02 395.299072
36.04 390.721497
36.06 390.249512
36.08 388.316254
36.10 385.269714
36.12 383.091003
36.14 377.864624
36.16 379.658264
36.18 382.257965
36.20 382.428253
36.22 385.932404
36.24 384.163788
36.26 385.66803
36.28 378.716888
36.30 376.970154
36.32 379.167847
36.34 380.609741
36.36 386.13739
36.38 377.414917
36.40 375.211914
36.42 379.171295
36.44 369.141479
36.46 372.422394
36.48 373.606354
36.50 368.995117
36.52 370.132172
36.54 366.958771
36.56 370.240295
36.58 376.572266
36.60 367.925354
36.62 364.977386
36.64 367.278046
36.66 368.665222
36.68 372.741821
36.70 374.09491
36.72 367.739319
36.74 361.575134
36.76 364.316345
36.78 368.218445
36.80 365.889771
36.82 361.726624
36.84 366.165558
36.86 365.082397
36.88 353.322784
36.90 364.712128
36.92 369.114136
36.94 362.867615
36.96 356.171326
36.98 353.047546
37.00 350.386841
37.02 357.493683
37.04 357.0961
37.06 361.814026
37.08 360.402863
37.10 359.754913
37.12 360.949005
37.14 368.359283
37.16 360.16922
37.18 356.443695
37.20 361.049408
37.22 358.272186
37.24 354.691071
37.26 354.311493
37.28 357.399689
37.30 353.79129
37.32 349.448517
37.34 345.677765
37.36 348.215454
37.38 353.074402
37.40 357.995361
37.42 356.065643
37.44 353.358459
37.46 355.430908
37.48 357.338135
37.50 350.57785
37.52 342.926697
37.54 349.871765
37.56 356.626404
37.58 352.169312
37.60 351.467072
37.62 350.930695
37.64 352.079163
37.66 349.881317
37.68 348.329834
37.70 349.374664
37.72 347.246094
37.74 350.968201
37.76 353.707031
37.78 349.226105
37.80 359.596863
37.82 356.990814
37.84 347.206146
37.86 351.326965
37.88 342.138947
37.90 338.679596
37.92 342.440063
37.94 353.937073
37.96 343.420319
37.98 336.375244
38.00 341.889587
38.02 338.333862
38.04 339.44281
38.06 335.435608
38.08 342.510925
38.10 343.518341
38.12 337.737
38.14 342.354767
38.16 344.835236
38.18 344.482147
38.20 342.229279
38.22 348.080078
38.24 344.014008
38.26 344.277557
38.28 339.389771
38.30 340.814514
38.32 345.144531
38.34 342.24884
38.36 340.729675
38.38 340.088562
38.40 344.293518
38.42 348.588898
38.44 348.298981
38.46 342.829437
38.48 346.952576
38.50 347.545441
38.52 352.862579
38.54 346.697327
38.56 348.675751
38.58 351.367981
38.60 350.780273
38.62 343.791779
38.64 346.711304
38.66 347.344238
38.68 350.29071
38.70 348.346893
38.72 343.258636
38.74 336.687561
38.76 332.162933
38.78 341.424957
38.80 342.670593
38.82 340.947449
38.84 337.865143
38.86 335.868713
38.88 335.125183
38.90 334.074371
38.92 335.416931
38.94 334.166107
38.96 327.721283
38.98 324.455475
39.00 329.176178
39.02 329.189972
39.04 327.801422
39.06 333.387268
39.08 334.41275
39.10 333.182129
39.12 328.266388
39.14 328.891968
39.16 329.825409
39.18 332.266296
39.20 332.081696
39.22 329.20575
39.24 328.941223
39.26 332.063995
39.28 328.914215
39.30 323.267303
39.32 322.424225
39.34 325.471771
39.36 329.399902
39.38 335.851654
39.40 340.905853
39.42 333.538086
39.44 332.115814
39.46 329.493652
39.48 322.962769
39.50 324.012878
39.52 320.781311
39.54 323.319855
39.56 321.212891
39.58 332.437805
39.60 330.32782
39.62 324.541534
39.64 323.064117
39.66 325.449432
39.68 327.402771
39.70 322.589661
39.72 317.349213
39.74 317.829132
39.76 317.20813
39.78 315.253235
39.80 314.549225
39.82 311.183716
39.84 306.62204
39.86 304.915131
39.88 307.841064
39.90 313.296417
39.92 314.824219
39.94 310.356964
39.96 305.101349
39.98 308.151917
40.00 307.369354
