!@!!GADDS PLOTSO FILE: Chi integration type
!@!!Title/SampleName: ML_MAPbX3
!@!!User: NREL
!@!!Site: NREL SERF C211; SN 2510
!@!!Frame: 081022_MLProject_000_010.gfrm
!@!!Wavelengths    1.54184   1.54056   1.54439
!@!!Frame angles: 2Theta: 28.000 Omega: 5.000 Phi: 0.000 Chi: 90.000
!@!!Integration range: 2Theta: 10.000 to 40.000  Gamma: -135.000 to -110.000
!@!!Integration method: bin normalized
!@!N
!@!SS
!@!M
!@!L 0.0 0.0 0.0 0.0
!@!XDegrees
!@!YCounts
10.00 150.820038
10.02 177.560837
10.04 174.154373
10.06 153.97287
10.08 159.211411
10.10 162.224884
10.12 171.305344
10.14 180.657745
10.16 156.824692
10.18 151.362534
10.20 152.993164
10.22 163.439636
10.24 157.740692
10.26 173.122299
10.28 175.134918
10.30 160.577881
10.32 158.165176
10.34 171.67215
10.36 179.883575
10.38 175.037079
10.40 173.728821
10.42 169.981384
10.44 172.498459
10.46 185.523758
10.48 189.015411
10.50 181.486298
10.52 177.240204
10.54 186.472397
10.56 189.325089
10.58 184.277176
10.60 178.148453
10.62 179.055359
10.64 188.137085
10.66 182.090469
10.68 184.39624
10.70 192.389465
10.72 181.674408
10.74 198.123596
10.76 205.480835
10.78 198.847763
10.80 204.507416
10.82 186.861969
10.84 188.830475
10.86 180.965942
10.88 184.008865
10.90 186.34024
10.92 190.699799
10.94 200.181641
10.96 186.090134
10.98 198.766525
11.00 209.61705
11.02 211.371124
11.04 201.800888
11.06 203.088379
11.08 204.748581
11.10 185.738037
11.12 202.935608
11.14 212.936691
11.16 187.716843
11.18 198.736862
11.20 221.466766
11.22 208.125122
11.24 211.377441
11.26 214.973694
11.28 203.507294
11.30 204.969849
11.32 214.250076
11.34 205.895645
11.36 209.061905
11.38 213.179306
11.40 209.623444
11.42 218.160599
11.44 218.702591
11.46 219.909515
11.48 211.245987
11.50 214.516296
11.52 207.449356
11.54 206.471588
11.56 219.730835
11.58 215.096329
11.60 220.708206
11.62 214.305298
11.64 208.155838
11.66 204.333511
11.68 218.881653
11.70 210.812302
11.72 213.053818
11.74 212.074707
11.76 225.379654
11.78 219.113708
11.80 231.666672
11.82 229.235306
11.84 237.956635
11.86 212.002914
11.88 235.176147
11.90 231.546921
11.92 220.955185
11.94 234.705688
11.96 258.686981
11.98 238.646255
12.00 241.741211
12.02 235.911652
12.04 219.174759
12.06 236.028946
12.08 240.939209
12.10 240.515884
12.12 236.784927
12.14 238.22168
12.16 233.5466
12.18 237.37204
12.20 232.096268
12.22 242.473816
12.24 236.927811
12.26 235.449631
12.28 245.390198
12.30 250.898438
12.32 233.039459
12.34 241.908554
12.36 254.372025
12.38 233.288147
12.40 239.461441
12.42 238.349518
12.44 255.605042
12.46 276.132019
12.48 252.58551
12.50 223.516983
12.52 244.313934
12.54 252.315536
12.56 247.642548
12.58 244.337418
12.60 241.443939
12.62 256.41507
12.64 257.992371
12.66 251.997452
12.68 241.103348
12.70 251.157288
12.72 248.237
12.74 251.691833
12.76 242.481415
12.78 247.112885
12.80 250.13385
12.82 257.039978
12.84 269.038971
12.86 248.727936
12.88 255.182251
12.90 254.217117
12.92 255.652603
12.94 246.699509
12.96 249.947693
12.98 254.374725
13.00 248.762695
13.02 250.63295
13.04 254.154816
13.06 261.012787
13.08 254.447891
13.10 265.963623
13.12 268.868408
13.14 263.334106
13.16 268.943451
13.18 274.558472
13.20 266.539825
13.22 257.228149
13.24 258.68692
13.26 258.302277
13.28 267.732056
13.30 254.859116
13.32 258.288086
13.34 270.81543
13.36 267.781769
13.38 274.885834
13.40 262.562347
13.42 275.071747
13.44 257.551544
13.46 251.135544
13.48 254.014053
13.50 261.835022
13.52 251.195572
13.54 258.851105
13.56 290.920624
13.58 286.108429
13.60 280.826569
13.62 273.595703
13.64 267.823151
13.66 259.245422
13.68 251.45311
13.70 271.435242
13.72 280.73941
13.74 278.491638
13.76 266.920868
13.78 262.447296
13.80 254.66301
13.82 278.56604
13.84 297.244263
13.86 291.549225
13.88 283.107544
13.90 275.784302
13.92 284.141785
13.94 286.032471
13.96 283.807312
13.98 293.699127
14.00 295.806091
14.02 298.028351
14.04 304.740326
14.06 294.366943
14.08 315.195709
14.10 329.495514
14.12 321.087982
14.14 316.006195
14.16 318.943817
14.18 314.663696
14.20 312.529755
14.22 312.526733
14.24 323.819305
14.26 312.503906
14.28 331.002319
14.30 328.445251
14.32 324.526825
14.34 326.213959
14.36 335.093048
14.38 328.527496
14.40 331.209991
14.42 325.456726
14.44 317.243744
14.46 322.952667
14.48 319.901031
14.50 318.546509
14.52 331.086395
14.54 321.795715
14.56 317.612122
14.58 310.576996
14.60 307.631042
14.62 288.2276
14.64 307.531677
14.66 324.492645
14.68 310.921326
14.70 301.517822
14.72 304.90033
14.74 323.301849
14.76 295.223999
14.78 292.038727
14.80 312.094879
14.82 311.303925
14.84 317.629303
14.86 288.551666
14.88 283.642822
14.90 296.142426
14.92 296.472015
14.94 304.737244
14.96 279.308685
14.98 284.476532
15.00 287.924316
15.02 299.319702
15.04 300.210144
15.06 291.801697
15.08 289.06546
15.10 300.117188
15.12 292.395477
15.14 288.618744
15.16 283.88562
15.18 288.873444
15.20 278.545593
15.22 291.556793
15.24 305.049377
15.26 300.648102
15.28 304.33255
15.30 279.829468
15.32 284.149963
15.34 277.653564
15.36 291.494446
15.38 295.49649
15.40 299.1875
15.42 291.670319
15.44 286.967682
15.46 293.352875
15.48 289.144684
15.50 290.224884
15.52 278.295654
15.54 279.462311
15.56 284.145233
15.58 289.63205
15.60 301.018555
15.62 313.424957
15.64 308.662079
15.66 290.330902
15.68 291.788605
15.70 294.051636
15.72 292.473267
15.74 300.368195
15.76 296.084595
15.78 289.996277
15.80 297.954895
15.82 305.972229
15.84 317.439941
15.86 295.867279
15.88 301.4487
15.90 298.174133
15.92 294.003357
15.94 292.03064
15.96 291.469086
15.98 307.638519
16.00 314.109039
16.02 309.913086
16.04 292.797791
16.06 302.486176
16.08 311.919067
16.10 315.286896
16.12 310.941559
16.14 312.940186
16.16 300.535126
16.18 306.78717
16.20 302.788391
16.22 287.66626
16.24 291.400208
16.26 299.119232
16.28 317.427368
16.30 320.993866
16.32 305.123352
16.34 307.069275
16.36 306.667847
16.38 313.033264
16.40 308.203522
16.42 309.723419
16.44 318.969299
16.46 317.570038
16.48 313.961639
16.50 300.752441
16.52 309.475372
16.54 315.685028
16.56 311.511383
16.58 294.291229
16.60 303.771393
16.62 308.507233
16.64 315.679535
16.66 312.453827
16.68 310.486969
16.70 302.087158
16.72 306.59903
16.74 318.894989
16.76 328.351318
16.78 329.096161
16.80 321.492737
16.82 315.254883
16.84 322.614777
16.86 329.026917
16.88 323.812714
16.90 324.556488
16.92 323.983307
16.94 333.225189
16.96 336.387329
16.98 315.414673
17.00 309.860168
17.02 303.155151
17.04 337.088654
17.06 340.732178
17.08 327.413025
17.10 346.861786
17.12 329.200623
17.14 334.220612
17.16 327.365265
17.18 335.725433
17.20 348.620026
17.22 335.786835
17.24 336.099091
17.26 323.601654
17.28 335.481171
17.30 342.572845
17.32 343.135803
17.34 335.272766
17.36 333.351288
17.38 331.580292
17.40 315.838226
17.42 317.880249
17.44 319.212128
17.46 329.056519
17.48 341.018066
17.50 358.716583
17.52 367.138306
17.54 355.899261
17.56 332.049683
17.58 328.726349
17.60 332.165497
17.62 339.326019
17.64 349.903351
17.66 357.080627
17.68 348.530029
17.70 343.398132
17.72 334.331543
17.74 345.175476
17.76 352.15976
17.78 350.550537
17.80 358.527435
17.82 354.707153
17.84 347.624573
17.86 341.890533
17.88 349.263916
17.90 349.423218
17.92 350.917297
17.94 369.466736
17.96 343.323395
17.98 353.382935
18.00 361.282959
18.02 357.843628
18.04 360.834656
18.06 365.509644
18.08 348.667267
18.10 362.865997
18.12 355.068604
18.14 357.262238
18.16 355.556915
18.18 361.861176
18.20 365.094788
18.22 366.869263
18.24 369.925293
18.26 378.936127
18.28 383.412994
18.30 382.637177
18.32 364.181213
18.34 357.260529
18.36 353.114502
18.38 354.910675
18.40 364.216583
18.42 364.029449
18.44 360.457306
18.46 373.962341
18.48 384.494598
18.50 394.671051
18.52 387.950165
18.54 373.236328
18.56 369.36673
18.58 375.891266
18.60 380.160645
18.62 378.049103
18.64 381.41568
18.66 389.917358
18.68 382.907623
18.70 376.8237
18.72 378.996063
18.74 384.084351
18.76 373.205658
18.78 365.567535
18.80 389.668549
18.82 393.24765
18.84 386.179382
18.86 384.966003
18.88 391.730713
18.90 377.30722
18.92 380.111237
18.94 375.197174
18.96 392.789307
18.98 399.05542
19.00 383.178406
19.02 382.323334
19.04 387.314209
19.06 402.720184
19.08 388.990234
19.10 383.796356
19.12 388.295685
19.14 409.750214
19.16 418.894745
19.18 408.259979
19.20 406.606659
19.22 400.613831
19.24 398.138672
19.26 408.40625
19.28 409.287659
19.30 399.946716
19.32 384.412598
19.34 402.786469
19.36 411.44931
19.38 407.018494
19.40 409.268097
19.42 395.367432
19.44 402.08493
19.46 417.3974
19.48 426.275787
19.50 431.524384
19.52 420.099304
19.54 405.706879
19.56 407.464325
19.58 412.21405
19.60 412.817322
19.62 411.096375
19.64 412.291656
19.66 424.240234
19.68 412.126892
19.70 405.395966
19.72 419.817871
19.74 422.430634
19.76 424.8862
19.78 430.800171
19.80 436.273468
19.82 434.26535
19.84 428.582764
19.86 416.549713
19.88 418.515442
19.90 442.745728
19.92 446.876862
19.94 449.291016
19.96 460.252441
19.98 466.078156
20.00 460.271942
20.02 446.794464
20.04 438.959259
20.06 443.488708
20.08 447.34494
20.10 448.3078
20.12 442.184235
20.14 455.20459
20.16 446.80365
20.18 452.675079
20.20 465.741669
20.22 464.182281
20.24 472.38501
20.26 478.210724
20.28 484.180206
20.30 465.642822
20.32 457.821106
20.34 474.978363
20.36 492.835358
20.38 495.188263
20.40 479.991394
20.42 484.018158
20.44 480.260834
20.46 453.740845
20.48 468.112366
20.50 487.209015
20.52 485.769531
20.54 489.938934
20.56 499.882813
20.58 489.034729
20.60 472.221985
20.62 471.415314
20.64 465.557343
20.66 473.70636
20.68 507.364716
20.70 497.553894
20.72 478.510437
20.74 495.518921
20.76 480.899872
20.78 487.792175
20.80 479.592194
20.82 470.66684
20.84 483.218658
20.86 480.876892
20.88 477.351898
20.90 458.380432
20.92 461.613007
20.94 451.963959
20.96 473.388794
20.98 469.670258
21.00 478.405823
21.02 484.551971
21.04 474.281189
21.06 460.677429
21.08 480.31546
21.10 478.567993
21.12 483.730682
21.14 493.050537
21.16 487.455322
21.18 485.157104
21.20 472.171173
21.22 464.790497
21.24 481.090363
21.26 483.807007
21.28 483.427185
21.30 481.498413
21.32 483.93103
21.34 499.863831
21.36 489.543701
21.38 478.190704
21.40 488.611023
21.42 485.329468
21.44 478.566284
21.46 495.326324
21.48 489.004333
21.50 499.946869
21.52 499.960999
21.54 497.070679
21.56 485.380585
21.58 493.353424
21.60 492.891541
21.62 490.490417
21.64 495.16803
21.66 488.539063
21.68 492.604065
21.70 515.153137
21.72 528.10022
21.74 508.98764
21.76 508.676178
21.78 514.477905
21.80 505.550446
21.82 492.219055
21.84 508.293121
21.86 510.864868
21.88 510.507202
21.90 529.894165
21.92 514.858948
21.94 495.999634
21.96 506.281708
21.98 509.405579
22.00 508.869141
22.02 520.613098
22.04 522.177368
22.06 520.247864
22.08 517.903198
22.10 512.601257
22.12 518.559509
22.14 506.142273
22.16 500.65625
22.18 514.265747
22.20 508.399231
22.22 517.997009
22.24 526.622009
22.26 510.496765
22.28 511.315613
22.30 539.210938
22.32 526.353394
22.34 526.656433
22.36 530.886841
22.38 524.708435
22.40 508.661682
22.42 519.615906
22.44 525.707581
22.46 535.743896
22.48 518.575867
22.50 518.511963
22.52 521.540955
22.54 526.980103
22.56 556.1745
22.58 538.085449
22.60 530.085754
22.62 532.648926
22.64 535.446289
22.66 533.836243
22.68 531.485901
22.70 535.307678
22.72 549.954956
22.74 539.298218
22.76 546.389893
22.78 545.642212
22.80 525.33667
22.82 536.611206
22.84 534.710938
22.86 544.031616
22.88 530.413147
22.90 523.86438
22.92 539.853821
22.94 546.166748
22.96 549.868652
22.98 539.66687
23.00 542.708618
23.02 558.169128
23.04 555.568359
23.06 550.861877
23.08 546.176758
23.10 551.765503
23.12 546.81897
23.14 544.805664
23.16 539.191223
23.18 534.819824
23.20 529.463867
23.22 541.280273
23.24 554.112732
23.26 556.671814
23.28 555.114075
23.30 540.067078
23.32 527.059387
23.34 525.293274
23.36 545.314453
23.38 555.768799
23.40 553.626038
23.42 546.599854
23.44 543.160706
23.46 549.272217
23.48 553.586487
23.50 564.066772
23.52 560.191284
23.54 547.846985
23.56 541.817688
23.58 549.18103
23.60 566.514954
23.62 558.53479
23.64 545.317139
23.66 552.187195
23.68 549.646606
23.70 536.821045
23.72 548.338928
23.74 543.716309
23.76 556.994568
23.78 556.422607
23.80 545.152161
23.82 556.034424
23.84 550.200806
23.86 534.855225
23.88 547.286377
23.90 572.391479
23.92 562.123718
23.94 545.40802
23.96 544.438171
23.98 564.864624
24.00 565.849365
24.02 574.20929
24.04 566.206909
24.06 572.270081
24.08 576.397705
24.10 576.22998
24.12 557.233582
24.14 548.720337
24.16 571.894958
24.18 568.415283
24.20 558.002136
24.22 555.156799
24.24 558.218323
24.26 549.493652
24.28 552.648621
24.30 561.137451
24.32 565.551941
24.34 554.415588
24.36 556.321045
24.38 563.110779
24.40 565.872253
24.42 562.422241
24.44 555.241211
24.46 566.914368
24.48 562.960815
24.50 566.582275
24.52 550.6922
24.54 568.599609
24.56 580.881531
24.58 569.273438
24.60 580.994507
24.62 583.661194
24.64 575.871765
24.66 584.521423
24.68 583.764465
24.70 567.818298
24.72 561.428345
24.74 576.358093
24.76 576.279175
24.78 576.791504
24.80 575.31958
24.82 573.506226
24.84 572.236206
24.86 575.347961
24.88 576.590881
24.90 566.258606
24.92 569.603882
24.94 563.446838
24.96 571.872437
24.98 574.355164
25.00 567.542175
25.02 569.134949
25.04 571.435181
25.06 576.878723
25.08 572.096497
25.10 570.722412
25.12 563.782959
25.14 560.919434
25.16 570.530212
25.18 569.424438
25.20 573.846252
25.22 563.392395
25.24 564.13678
25.26 562.65918
25.28 559.079773
25.30 579.061157
25.32 569.017151
25.34 566.477112
25.36 568.295593
25.38 557.444824
25.40 556.570679
25.42 560.681641
25.44 571.549072
25.46 584.469299
25.48 565.890564
25.50 562.333313
25.52 567.092773
25.54 578.014465
25.56 582.141174
25.58 591.94043
25.60 588.180176
25.62 562.721008
25.64 560.704834
25.66 577.96521
25.68 579.453796
25.70 577.969482
25.72 586.721008
25.74 571.203918
25.76 565.002197
25.78 564.864441
25.80 563.963074
25.82 545.218445
25.84 554.221375
25.86 577.269958
25.88 572.644592
25.90 563.933716
25.92 566.486877
25.94 558.41687
25.96 559.073792
25.98 561.195679
26.00 560.501953
26.02 558.764954
26.04 561.007996
26.06 557.851013
26.08 546.421021
26.10 572.403564
26.12 585.63092
26.14 571.969727
26.16 572.78186
26.18 573.254211
26.20 570.331726
26.22 582.247742
26.24 580.229065
26.26 570.11322
26.28 563.810486
26.30 562.265564
26.32 567.940369
26.34 565.399536
26.36 563.504517
26.38 570.661621
26.40 558.835022
26.42 565.241821
26.44 578.813721
26.46 578.343323
26.48 562.948486
26.50 565.744995
26.52 562.815002
26.54 571.002441
26.56 588.64801
26.58 585.066772
26.60 570.98114
26.62 570.08905
26.64 562.042297
26.66 562.313477
26.68 564.099854
26.70 572.762207
26.72 578.463867
26.74 580.982178
26.76 588.247559
26.78 583.247009
26.80 567.670715
26.82 564.173889
26.84 569.482239
26.86 576.370667
26.88 576.098694
26.90 567.094482
26.92 571.297974
26.94 570.445679
26.96 559.555054
26.98 565.469299
27.00 571.672974
27.02 583.331299
27.04 562.78363
27.06 558.57605
27.08 563.770325
27.10 563.921021
27.12 559.823242
27.14 548.018311
27.16 556.759033
27.18 568.366516
27.20 564.449402
27.22 559.038696
27.24 552.652283
27.26 563.981079
27.28 563.190735
27.30 551.60144
27.32 552.329651
27.34 564.112793
27.36 560.971069
27.38 557.413452
27.40 554.184875
27.42 566.662781
27.44 564.463806
27.46 550.887207
27.48 566.088867
27.50 549.606812
27.52 557.151794
27.54 575.860474
27.56 571.080872
27.58 569.018127
27.60 567.911377
27.62 571.585938
27.64 570.793884
27.66 561.127869
27.68 554.92627
27.70 567.983093
27.72 576.521484
27.74 572.871033
27.76 571.893188
27.78 564.021667
27.80 567.70874
27.82 575.637329
27.84 565.735168
27.86 546.014709
27.88 559.38562
27.90 563.252136
27.92 553.532532
27.94 562.503784
27.96 549.070923
27.98 550.920593
28.00 540.072571
28.02 534.311279
28.04 549.263733
28.06 545.282166
28.08 552.147705
28.10 563.566833
28.12 563.433228
28.14 550.692688
28.16 566.135193
28.18 569.0448
28.20 554.203552
28.22 552.157593
28.24 562.17627
28.26 564.315063
28.28 565.974792
28.30 569.544617
28.32 572.690247
28.34 564.464111
28.36 572.152893
28.38 565.117676
28.40 556.64502
28.42 555.374207
28.44 563.984924
28.46 565.371155
28.48 549.385559
28.50 555.307007
28.52 551.078552
28.54 560.91095
28.56 567.975464
28.58 563.620911
28.60 579.547546
28.62 570.463806
28.64 562.069275
28.66 575.862793
28.68 577.253418
28.70 585.184265
28.72 576.498047
28.74 560.674683
28.76 566.447083
28.78 578.009644
28.80 563.224121
28.82 562.058899
28.84 575.650635
28.86 595.026306
28.88 593.807495
28.90 596.045776
28.92 580.438049
28.94 586.669922
28.96 601.463135
28.98 586.75238
29.00 567.917603
29.02 577.253174
29.04 597.321289
29.06 595.134155
29.08 594.745544
29.10 598.665222
29.12 601.44635
29.14 594.707031
29.16 597.442322
29.18 594.579529
29.20 580.440857
29.22 589.313721
29.24 593.920227
29.26 589.887695
29.28 593.792969
29.30 592.280334
29.32 582.340027
29.34 569.160278
29.36 565.26532
29.38 554.080933
29.40 545.048157
29.42 549.116638
29.44 545.551575
29.46 549.042358
29.48 557.28125
29.50 561.67749
29.52 580.931091
29.54 563.802063
29.56 547.405273
29.58 545.882813
29.60 540.141907
29.62 533.561523
29.64 532.54364
29.66 539.441833
29.68 537.394165
29.70 543.516357
29.72 542.98822
29.74 531.291565
29.76 526.983215
29.78 530.411743
29.80 538.696289
29.82 537.974731
29.84 537.280579
29.86 545.217407
29.88 530.47406
29.90 523.732605
29.92 526.108032
29.94 543.002258
29.96 542.501587
29.98 543.238037
30.00 531.929016
30.02 525.678467
30.04 520.483032
30.06 523.792847
30.08 527.65448
30.10 520.9104
30.12 516.791992
30.14 515.076233
30.16 519.006226
30.18 517.376831
30.20 530.970276
30.22 539.513977
30.24 525.63739
30.26 532.68811
30.28 520.241394
30.30 519.568298
30.32 522.732056
30.34 537.460815
30.36 526.857056
30.38 500.686615
30.40 523.723022
30.42 517.345581
30.44 520.521362
30.46 515.926636
30.48 509.170746
30.50 513.101929
30.52 516.468079
30.54 510.180695
30.56 516.319397
30.58 516.395203
30.60 514.488281
30.62 517.842896
30.64 510.022491
30.66 503.004089
30.68 492.755524
30.70 499.431396
30.72 503.008179
30.74 492.374512
30.76 500.966492
30.78 499.76593
30.80 498.945007
30.82 513.494446
30.84 516.934937
30.86 518.024597
30.88 493.650299
30.90 486.493958
30.92 484.428162
30.94 487.728821
30.96 491.404846
30.98 492.061829
31.00 490.051544
31.02 493.393982
31.04 489.091919
31.06 482.031342
31.08 498.090393
31.10 504.795197
31.12 479.307739
31.14 486.888
31.16 494.56015
31.18 481.53067
31.20 487.453766
31.22 487.297943
31.24 473.904755
31.26 466.830933
31.28 464.694611
31.30 471.353119
31.32 482.966705
31.34 483.561279
31.36 485.520355
31.38 484.684387
31.40 485.521118
31.42 484.172058
31.44 483.293793
31.46 490.829254
31.48 479.639801
31.50 476.075317
31.52 479.557037
31.54 475.746948
31.56 482.119019
31.58 490.195282
31.60 481.927429
31.62 464.668732
31.64 466.994537
31.66 472.874512
31.68 469.306152
31.70 472.757416
31.72 480.507294
31.74 474.478363
31.76 474.85376
31.78 476.915619
31.80 488.717438
31.82 485.825317
31.84 482.607849
31.86 489.299438
31.88 492.171021
31.90 481.607788
31.92 461.595306
31.94 456.98175
31.96 467.443359
31.98 482.833405
32.00 495.90564
32.02 490.948364
32.04 498.611237
32.06 497.065094
32.08 493.560608
32.10 501.360077
32.12 488.994659
32.14 487.334808
32.16 498.194824
32.18 517.157471
32.20 531.851074
32.22 546.705811
32.24 535.148926
32.26 542.173645
32.28 542.401917
32.30 546.241943
32.32 535.144714
32.34 544.62439
32.36 565.924011
32.38 570.557373
32.40 572.517822
32.42 571.872375
32.44 568.819702
32.46 580.020325
32.48 583.347168
32.50 584.832153
32.52 576.624207
32.54 590.273926
32.56 593.047119
32.58 583.909851
32.60 586.491211
32.62 597.477539
32.64 589.30127
32.66 580.8974
32.68 583.109253
32.70 582.780273
32.72 584.582275
32.74 587.218933
32.76 581.807617
32.78 588.279358
32.80 564.263367
32.82 566.444214
32.84 575.781494
32.86 564.613586
32.88 548.953247
32.90 531.294739
32.92 534.997559
32.94 534.577148
32.96 526.560974
32.98 519.890686
33.00 516.624146
33.02 515.703186
33.04 515.871521
33.06 511.099182
33.08 506.437134
33.10 511.587708
33.12 494.598633
33.14 483.526428
33.16 487.697021
33.18 462.439392
33.20 452.772705
33.22 449.272614
33.24 453.606049
33.26 463.314514
33.28 481.433197
33.30 463.250061
33.32 442.634247
33.34 443.819214
33.36 441.581177
33.38 462.907043
33.40 463.393707
33.42 452.710114
33.44 462.02597
33.46 459.456635
33.48 453.512756
33.50 452.478485
33.52 455.065613
33.54 439.77121
33.56 431.750122
33.58 445.912964
33.60 429.521057
33.62 433.964417
33.64 440.781311
33.66 439.28363
33.68 432.902222
33.70 436.984955
33.72 444.032501
33.74 444.333374
33.76 437.573242
33.78 435.651886
33.80 435.082581
33.82 424.384552
33.84 434.662323
33.86 427.604584
33.88 439.626648
33.90 437.191284
33.92 428.946625
33.94 431.102936
33.96 418.831757
33.98 432.934479
34.00 428.748718
34.02 409.264435
34.04 414.061005
34.06 412.222321
34.08 416.078369
34.10 420.73288
34.12 410.085297
34.14 427.493225
34.16 428.46814
34.18 422.688629
34.20 423.95697
34.22 414.500732
34.24 409.749268
34.26 418.731293
34.28 412.600311
34.30 403.657227
34.32 399.758606
34.34 406.435822
34.36 409.607361
34.38 417.027374
34.40 412.497925
34.42 407.476746
34.44 405.374115
34.46 406.471954
34.48 418.198364
34.50 408.414307
34.52 426.841125
34.54 421.339905
34.56 405.913086
34.58 406.166351
34.60 410.713165
34.62 405.346191
34.64 405.971588
34.66 396.905548
34.68 393.908875
34.70 408.12381
34.72 413.288452
34.74 405.197601
34.76 411.44519
34.78 403.65509
34.80 415.750916
34.82 421.68512
34.84 420.327393
34.86 403.795746
34.88 404.48233
34.90 407.013977
34.92 396.378265
34.94 396.310303
34.96 400.881042
34.98 401.708466
35.00 397.925629
35.02 405.584229
35.04 409.789948
35.06 400.625427
35.08 411.484528
35.10 423.01001
35.12 406.598022
35.14 403.563507
35.16 410.458954
35.18 408.35202
35.20 417.436279
35.22 411.265625
35.24 404.388214
35.26 398.092865
35.28 391.209229
35.30 387.999664
35.32 368.727844
35.34 362.922119
35.36 370.176849
35.38 382.479218
35.40 394.156219
35.42 393.875061
35.44 394.236816
35.46 400.408569
35.48 411.745453
35.50 399.695374
35.52 391.513672
35.54 394.836029
35.56 394.977936
35.58 391.574615
35.60 396.041534
35.62 408.808929
35.64 416.20697
35.66 405.410583
35.68 402.104034
35.70 396.417908
35.72 385.878479
35.74 385.637756
35.76 388.693024
35.78 385.424286
35.80 394.809387
35.82 397.314819
35.84 395.905579
35.86 398.680084
35.88 404.971741
35.90 382.969696
35.92 398.308472
35.94 392.950836
35.96 388.654785
35.98 397.309448
36.00 383.269379
36.02 381.505524
36.04 376.970856
36.06 363.187775
36.08 370.752594
36.10 380.157257
36.12 391.08075
36.14 399.751801
36.16 385.384735
36.18 379.079895
36.20 379.878906
36.22 377.563385
36.24 377.995697
36.26 383.729584
36.28 380.795624
36.30 372.937164
36.32 362.752502
36.34 363.808502
36.36 358.404388
36.38 352.407928
36.40 358.090118
36.42 352.169159
36.44 346.303162
36.46 362.718018
36.48 360.602692
36.50 370.428406
36.52 357.793335
36.54 361.703705
36.56 366.128448
36.58 365.577942
36.60 337.105469
36.62 331.658752
36.64 341.540741
36.66 350.100586
36.68 354.478638
36.70 351.998047
36.72 352.049713
36.74 354.306366
36.76 364.236786
36.78 350.580872
36.80 337.690338
36.82 351.452789
36.84 348.622162
36.86 342.639648
36.88 342.552032
36.90 336.989563
36.92 345.045563
36.94 342.940094
36.96 334.928772
36.98 340.261047
37.00 339.514008
37.02 331.703003
37.04 327.454498
37.06 331.018921
37.08 342.727325
37.10 330.312439
37.12 335.045593
37.14 336.36261
37.16 335.783234
37.18 335.661835
37.20 339.900665
37.22 322.26297
37.24 327.777466
37.26 340.84848
37.28 338.724945
37.30 337.492706
37.32 344.160431
37.34 325.259644
37.36 313.207153
37.38 318.785919
37.40 330.123749
37.42 324.546753
37.44 326.151764
37.46 336.892365
37.48 337.410217
37.50 333.791443
37.52 324.198303
37.54 319.045868
37.56 325.565277
37.58 328.762085
37.60 330.131409
37.62 321.424927
37.64 321.825378
37.66 316.465027
37.68 320.320709
37.70 319.158264
37.72 314.141418
37.74 306.020111
37.76 312.938782
37.78 329.452148
37.80 335.791931
37.82 335.558594
37.84 326.788452
37.86 329.706635
37.88 317.333191
37.90 325.430542
37.92 330.442108
37.94 322.489227
37.96 313.022461
37.98 310.507996
38.00 313.49588
38.02 329.600739
38.04 320.955414
38.06 324.600647
38.08 320.041016
38.10 313.50708
38.12 319.591278
38.14 316.544861
38.16 310.989136
38.18 318.537231
38.20 324.307373
38.22 319.804413
38.24 302.185883
38.26 302.683197
38.28 302.349121
38.30 316.831787
38.32 323.542633
38.34 304.734711
38.36 314.244385
38.38 321.555878
38.40 315.195129
38.42 311.080566
38.44 306.338989
38.46 307.142761
38.48 308.091125
38.50 302.684631
38.52 302.565918
38.54 300.002686
38.56 305.629211
38.58 300.142731
38.60 319.481995
38.62 318.905884
38.64 308.14975
38.66 301.222717
38.68 303.820099
38.70 314.837921
38.72 300.129486
38.74 288.44986
38.76 299.239899
38.78 306.855835
38.80 306.437836
38.82 297.901276
38.84 314.658569
38.86 316.131378
38.88 307.656647
38.90 297.02655
38.92 300.974243
38.94 293.690582
38.96 283.834717
38.98 305.478516
39.00 297.791992
39.02 295.325745
39.04 303.028717
39.06 295.356842
39.08 284.036926
39.10 288.576447
39.12 284.15271
39.14 286.370453
39.16 289.515045
39.18 288.160126
39.20 292.542511
39.22 279.814972
39.24 272.415558
39.26 268.459747
39.28 277.389648
39.30 290.109161
39.32 280.480682
39.34 286.159424
39.36 297.379272
39.38 276.477356
39.40 276.984161
39.42 277.62207
39.44 284.23822
39.46 288.037354
39.48 284.347229
39.50 289.768127
39.52 270.797485
39.54 276.694794
39.56 276.624329
39.58 275.800903
39.60 279.761292
39.62 275.183685
39.64 267.809631
39.66 272.476898
39.68 277.874146
39.70 271.351624
39.72 280.11441
39.74 276.245544
39.76 275.9776
39.78 266.996246
39.80 264.783905
39.82 254.258133
39.84 261.304993
39.86 273.230682
39.88 261.1922
39.90 270.508026
39.92 280.886902
39.94 281.609833
39.96 266.784943
39.98 269.934143
40.00 279.085175
