!@!!GADDS PLOTSO FILE: Chi integration type
!@!!Title/SampleName: ML_MAPbX3
!@!!User: NREL
!@!!Site: NREL SERF C211; SN 2510
!@!!Frame: 081022_MLProject_000_010.gfrm
!@!!Wavelengths    1.54184   1.54056   1.54439
!@!!Frame angles: 2Theta: 28.000 Omega: 5.000 Phi: 0.000 Chi: 90.000
!@!!Integration range: 2Theta: 10.000 to 40.000  Gamma: -135.000 to -45.000
!@!!Integration method: bin normalized
!@!N
!@!SS
!@!M
!@!L 0.0 0.0 0.0 0.0
!@!XDegrees
!@!YCounts
10.00 190.450699
10.02 195.106537
10.04 193.399231
10.06 181.17337
10.08 182.213913
10.10 190.27771
10.12 204.181259
10.14 205.480515
10.16 199.560501
10.18 192.262436
10.20 205.894058
10.22 203.098923
10.24 197.58699
10.26 205.334106
10.28 208.382217
10.30 201.506989
10.32 205.570297
10.34 208.48053
10.36 206.309296
10.38 203.225998
10.40 206.729111
10.42 201.64325
10.44 199.5401
10.46 212.278244
10.48 217.201584
10.50 207.749146
10.52 206.028778
10.54 200.760437
10.56 199.583984
10.58 205.762741
10.60 209.39296
10.62 205.158844
10.64 203.079315
10.66 202.36882
10.68 213.439102
10.70 215.194397
10.72 216.899567
10.74 221.700851
10.76 227.542542
10.78 225.595352
10.80 221.166763
10.82 220.520187
10.84 214.311279
10.86 214.567108
10.88 218.626389
10.90 225.993759
10.92 224.947113
10.94 224.264114
10.96 221.887512
10.98 232.187195
11.00 230.104172
11.02 227.097855
11.04 223.122025
11.06 221.151794
11.08 222.581512
11.10 220.87674
11.12 224.830505
11.14 231.471573
11.16 227.929367
11.18 222.500397
11.20 238.033325
11.22 230.644714
11.24 228.146027
11.26 229.453415
11.28 220.781555
11.30 221.493805
11.32 233.823608
11.34 231.713806
11.36 237.8741
11.38 239.885986
11.40 227.355957
11.42 227.11087
11.44 228.574799
11.46 233.129654
11.48 236.826752
11.50 238.978638
11.52 234.053864
11.54 222.452209
11.56 238.136948
11.58 235.952515
11.60 233.306351
11.62 233.978989
11.64 239.672302
11.66 240.203125
11.68 248.763336
11.70 244.935165
11.72 241.73175
11.74 240.87175
11.76 241.16156
11.78 231.295425
11.80 242.71843
11.82 246.051346
11.84 252.767029
11.86 249.005997
11.88 259.675415
11.90 258.727875
11.92 245.004364
11.94 243.640472
11.96 249.168411
11.98 245.951935
12.00 250.84668
12.02 252.384689
12.04 253.846207
12.06 253.853439
12.08 254.363037
12.10 254.308197
12.12 260.33844
12.14 258.782715
12.16 253.811813
12.18 261.020935
12.20 251.858902
12.22 261.767395
12.24 264.411011
12.26 260.066711
12.28 259.104004
12.30 268.345917
12.32 253.183838
12.34 259.880371
12.36 269.485352
12.38 268.199707
12.40 275.886414
12.42 270.783081
12.44 275.004761
12.46 276.640991
12.48 279.005402
12.50 267.132507
12.52 270.537079
12.54 271.18985
12.56 276.600983
12.58 276.814606
12.60 267.869324
12.62 268.473297
12.64 274.223785
12.66 271.343842
12.68 266.532867
12.70 271.328491
12.72 267.557465
12.74 267.821014
12.76 270.763733
12.78 278.559418
12.80 278.327393
12.82 268.394012
12.84 277.794525
12.86 262.005493
12.88 267.604065
12.90 267.749603
12.92 269.995575
12.94 276.713318
12.96 267.938354
12.98 272.218658
13.00 269.327393
13.02 270.992706
13.04 269.970947
13.06 269.507294
13.08 275.232056
13.10 277.61322
13.12 276.911377
13.14 279.47998
13.16 273.332153
13.18 274.764923
13.20 272.324036
13.22 266.292847
13.24 267.621399
13.26 280.546844
13.28 277.672699
13.30 270.171936
13.32 280.552856
13.34 285.789093
13.36 287.776337
13.38 280.056
13.40 288.29071
13.42 289.251343
13.44 281.611053
13.46 284.985474
13.48 281.968292
13.50 286.428925
13.52 287.307159
13.54 285.760376
13.56 298.188965
13.58 290.296234
13.60 289.109772
13.62 278.212158
13.64 287.60788
13.66 290.494568
13.68 300.684601
13.70 311.265656
13.72 311.527313
13.74 308.968567
13.76 310.341217
13.78 318.108459
13.80 321.729889
13.82 320.870239
13.84 339.073944
13.86 348.147186
13.88 349.622681
13.90 354.118103
13.92 361.680817
13.94 368.616547
13.96 382.104462
13.98 393.610565
14.00 398.174042
14.02 416.024445
14.04 423.595306
14.06 436.822662
14.08 451.492645
14.10 478.962097
14.12 502.192413
14.14 520.205139
14.16 541.313904
14.18 564.369507
14.20 590.211487
14.22 622.615723
14.24 664.857666
14.26 695.099854
14.28 721.778809
14.30 736.48291
14.32 773.287842
14.34 808.519165
14.36 838.660339
14.38 843.19342
14.40 862.381287
14.42 885.624939
14.44 884.124451
14.46 873.145569
14.48 861.57373
14.50 838.209839
14.52 808.58844
14.54 776.944397
14.56 729.860107
14.58 671.523376
14.60 633.845154
14.62 587.581726
14.64 552.316467
14.66 513.072083
14.68 481.259735
14.70 456.495056
14.72 430.754456
14.74 414.285553
14.76 387.661316
14.78 372.62204
14.80 377.944275
14.82 360.844482
14.84 355.695129
14.86 342.21225
14.88 337.773346
14.90 338.712158
14.92 335.870728
14.94 329.099854
14.96 328.513763
14.98 330.21286
15.00 330.159058
15.02 330.173767
15.04 325.635956
15.06 315.024567
15.08 321.380859
15.10 328.719788
15.12 325.42099
15.14 329.322968
15.16 329.243927
15.18 322.536407
15.20 321.456085
15.22 327.16626
15.24 331.289856
15.26 334.709717
15.28 341.645142
15.30 331.262024
15.32 330.998199
15.34 340.207306
15.36 347.606445
15.38 349.986938
15.40 348.118439
15.42 341.681946
15.44 330.873688
15.46 339.359924
15.48 336.940674
15.50 330.426331
15.52 317.740173
15.54 318.38739
15.56 328.976257
15.58 325.795532
15.60 322.440582
15.62 322.420532
15.64 311.939514
15.66 305.229614
15.68 313.717438
15.70 318.759552
15.72 321.221222
15.74 318.351196
15.76 316.221771
15.78 310.924561
15.80 317.402008
15.82 323.489166
15.84 319.8367
15.86 319.181427
15.88 322.953369
15.90 322.383026
15.92 316.293243
15.94 311.658478
15.96 315.172852
15.98 317.8367
16.00 319.860901
16.02 323.218445
16.04 318.270782
16.06 321.854645
16.08 322.759857
16.10 320.849182
16.12 317.402039
16.14 325.843567
16.16 324.83551
16.18 326.263214
16.20 313.477264
16.22 299.139526
16.24 310.867645
16.26 322.026123
16.28 329.34494
16.30 322.941315
16.32 319.414001
16.34 327.624939
16.36 328.082611
16.38 333.765686
16.40 333.124908
16.42 323.985992
16.44 328.262054
16.46 329.053101
16.48 324.087372
16.50 320.901367
16.52 326.205292
16.54 329.365601
16.56 331.420959
16.58 326.357513
16.60 333.184265
16.62 333.126495
16.64 338.041351
16.66 335.606689
16.68 332.080078
16.70 337.853912
16.72 334.505341
16.74 340.586639
16.76 329.654663
16.78 334.676239
16.80 343.564056
16.82 339.040375
16.84 329.469482
16.86 343.754761
16.88 335.484711
16.90 339.460632
16.92 335.601776
16.94 344.468628
16.96 351.178284
16.98 345.186707
17.00 341.44342
17.02 334.854675
17.04 340.5065
17.06 345.690979
17.08 349.320038
17.10 351.65329
17.12 348.09082
17.14 344.272034
17.16 335.131073
17.18 341.423645
17.20 351.040466
17.22 352.740479
17.24 352.112396
17.26 340.268982
17.28 349.075684
17.30 351.822113
17.32 350.213165
17.34 353.193512
17.36 349.473755
17.38 349.095612
17.40 343.144806
17.42 344.337952
17.44 351.062378
17.46 351.358337
17.48 348.892303
17.50 348.536499
17.52 357.119019
17.54 357.100861
17.56 353.341949
17.58 352.208557
17.60 351.529877
17.62 356.041229
17.64 361.942078
17.66 364.312286
17.68 365.514648
17.70 355.423584
17.72 358.779144
17.74 359.477509
17.76 362.171326
17.78 360.924622
17.80 360.734436
17.82 362.684174
17.84 363.954742
17.86 365.607422
17.88 368.86673
17.90 367.744843
17.92 370.666077
17.94 383.757385
17.96 371.97757
17.98 364.956085
18.00 362.796143
18.02 369.19751
18.04 371.257141
18.06 369.87851
18.08 367.632263
18.10 372.684387
18.12 375.048279
18.14 376.569519
18.16 376.563324
18.18 378.37912
18.20 379.005188
18.22 379.64209
18.24 384.404358
18.26 391.859528
18.28 391.742188
18.30 385.021271
18.32 385.536743
18.34 383.519012
18.36 383.906281
18.38 379.945251
18.40 386.13678
18.42 394.838806
18.44 395.069305
18.46 390.511993
18.48 388.220062
18.50 397.270294
18.52 405.023529
18.54 395.899353
18.56 390.981201
18.58 401.503357
18.60 398.541595
18.62 395.68985
18.64 402.149261
18.66 402.684113
18.68 394.238525
18.70 396.064758
18.72 404.974426
18.74 408.448151
18.76 402.722076
18.78 388.220306
18.80 397.063904
18.82 396.813538
18.84 399.157227
18.86 407.150513
18.88 411.307709
18.90 407.640564
18.92 413.61438
18.94 413.61026
18.96 412.286072
18.98 407.451172
19.00 403.46698
19.02 410.457794
19.04 414.056824
19.06 414.418915
19.08 405.13504
19.10 406.069366
19.12 409.367401
19.14 412.135315
19.16 415.63797
19.18 423.240265
19.20 422.963013
19.22 419.407257
19.24 412.183289
19.26 419.421814
19.28 429.050934
19.30 417.939972
19.32 418.714752
19.34 426.372131
19.36 427.608948
19.38 424.136078
19.40 420.847473
19.42 420.980377
19.44 435.260376
19.46 432.130646
19.48 432.489624
19.50 442.946136
19.52 440.141754
19.54 434.20929
19.56 422.862061
19.58 422.067139
19.60 434.694733
19.62 438.215302
19.64 441.496887
19.66 441.209778
19.68 435.104736
19.70 432.50708
19.72 436.397186
19.74 441.243652
19.76 441.906433
19.78 448.457153
19.80 446.79718
19.82 446.330322
19.84 454.85321
19.86 450.504852
19.88 446.933075
19.90 456.828857
19.92 450.84256
19.94 450.573059
19.96 459.347443
19.98 466.485413
20.00 466.882721
20.02 467.76944
20.04 462.458649
20.06 462.797821
20.08 469.331329
20.10 464.393066
20.12 468.098572
20.14 480.943512
20.16 475.378662
20.18 470.408173
20.20 477.45993
20.22 478.671478
20.24 483.221893
20.26 493.710114
20.28 495.582703
20.30 491.089142
20.32 488.720795
20.34 484.428345
20.36 491.371643
20.38 493.417328
20.40 496.34082
20.42 503.127502
20.44 498.154144
20.46 491.224121
20.48 490.705261
20.50 502.502167
20.52 495.53598
20.54 496.601898
20.56 509.055206
20.58 499.996216
20.60 501.560577
20.62 501.616638
20.64 497.873993
20.66 499.545929
20.68 513.686584
20.70 509.943756
20.72 504.773254
20.74 515.520081
20.76 503.314728
20.78 504.159363
20.80 498.924622
20.82 491.722656
20.84 502.065674
20.86 506.077179
20.88 512.318237
20.90 508.90918
20.92 505.361786
20.94 504.445313
20.96 501.431854
20.98 501.017883
21.00 504.680664
21.02 510.196106
21.04 508.098541
21.06 503.36618
21.08 505.998993
21.10 512.720337
21.12 512.155029
21.14 516.716675
21.16 515.700623
21.18 510.730133
21.20 506.704468
21.22 499.691986
21.24 514.514832
21.26 507.954865
21.28 504.492554
21.30 504.791412
21.32 513.04071
21.34 517.936951
21.36 517.943481
21.38 509.355072
21.40 513.567688
21.42 512.919861
21.44 520.360535
21.46 524.552185
21.48 516.130493
21.50 516.786987
21.52 526.448547
21.54 527.606689
21.56 528.687317
21.58 530.686646
21.60 524.038635
21.62 517.838928
21.64 525.08606
21.66 530.554138
21.68 529.397888
21.70 536.996094
21.72 540.37738
21.74 532.548035
21.76 530.077576
21.78 541.958252
21.80 543.156433
21.82 538.573975
21.84 542.810791
21.86 538.128723
21.88 541.090393
21.90 537.730103
21.92 529.910828
21.94 545.289673
21.96 548.684937
21.98 538.043152
22.00 545.156128
22.02 551.163086
22.04 557.983887
22.06 548.949646
22.08 547.208191
22.10 538.655273
22.12 549.605225
22.14 546.25415
22.16 543.390869
22.18 542.819458
22.20 543.069031
22.22 557.761292
22.24 555.115295
22.26 544.776489
22.28 549.3302
22.30 558.387451
22.32 557.020569
22.34 559.619995
22.36 556.605286
22.38 555.681274
22.40 555.633972
22.42 544.977539
22.44 545.019592
22.46 553.493042
22.48 560.9505
22.50 559.276978
22.52 561.412842
22.54 554.178467
22.56 568.974426
22.58 573.442932
22.60 566.819214
22.62 564.034912
22.64 568.775879
22.66 560.799866
22.68 558.70575
22.70 558.347778
22.72 560.243042
22.74 561.276978
22.76 566.294128
22.78 569.788879
22.80 565.532898
22.82 581.630737
22.84 585.074402
22.86 571.431458
22.88 561.498413
22.90 568.48468
22.92 576.040161
22.94 571.434509
22.96 570.133423
22.98 572.467346
23.00 569.963867
23.02 567.671021
23.04 568.882568
23.06 571.546021
23.08 580.694885
23.10 576.610535
23.12 571.343384
23.14 574.499084
23.16 573.54248
23.18 572.75885
23.20 572.380188
23.22 574.578613
23.24 584.878967
23.26 581.145142
23.28 584.027466
23.30 581.503601
23.32 579.161072
23.34 583.116699
23.36 592.217712
23.38 588.772949
23.40 592.01886
23.42 582.270813
23.44 583.028198
23.46 592.082642
23.48 583.124084
23.50 585.280518
23.52 593.094421
23.54 581.024963
23.56 575.663513
23.58 584.590454
23.60 584.437195
23.62 583.447388
23.64 576.377502
23.66 587.867432
23.68 590.014832
23.70 582.266602
23.72 579.791748
23.74 580.828308
23.76 588.756775
23.78 593.300842
23.80 600.594543
23.82 602.106934
23.84 593.107788
23.86 585.847229
23.88 587.371582
23.90 601.775513
23.92 601.273682
23.94 595.752441
23.96 589.260071
23.98 593.031738
24.00 595.499451
24.02 600.898865
24.04 599.318359
24.06 602.442688
24.08 601.967102
24.10 599.70874
24.12 598.788269
24.14 597.283875
24.16 606.138367
24.18 606.006226
24.20 599.877747
24.22 599.046326
24.24 597.617798
24.26 599.673767
24.28 602.018616
24.30 603.52301
24.32 598.094666
24.34 594.648193
24.36 597.504028
24.38 599.584473
24.40 598.341064
24.42 589.571167
24.44 597.277466
24.46 601.51123
24.48 591.523132
24.50 598.38678
24.52 595.829895
24.54 597.031128
24.56 604.957825
24.58 604.877869
24.60 607.789795
24.62 608.90033
24.64 607.017578
24.66 605.055603
24.68 609.110046
24.70 599.755066
24.72 599.470032
24.74 604.31543
24.76 606.590271
24.78 601.45874
24.80 608.571228
24.82 609.1521
24.84 606.762268
24.86 613.741272
24.88 612.927429
24.90 608.512207
24.92 610.252808
24.94 612.876648
24.96 618.941589
24.98 615.30603
25.00 612.854126
25.02 616.30249
25.04 611.401855
25.06 613.404419
25.08 613.797607
25.10 611.859619
25.12 610.901367
25.14 614.072693
25.16 616.399963
25.18 613.120117
25.20 614.43512
25.22 604.919312
25.24 606.803833
25.26 604.624329
25.28 602.859375
25.30 616.677856
25.32 611.229919
25.34 611.37262
25.36 611.013
25.38 607.062683
25.40 605.953064
25.42 604.468384
25.44 602.089294
25.46 604.698669
25.48 606.614136
25.50 603.801025
25.52 602.332947
25.54 601.786194
25.56 602.012146
25.58 607.656311
25.60 610.525024
25.62 600.269287
25.64 602.973267
25.66 604.770081
25.68 606.664063
25.70 604.435181
25.72 611.311279
25.74 605.067566
25.76 606.045532
25.78 608.190918
25.80 606.445984
25.82 591.817505
25.84 589.337158
25.86 604.842224
25.88 603.843567
25.90 601.002991
25.92 607.360718
25.94 596.938538
25.96 600.458923
25.98 606.578125
26.00 596.360107
26.02 595.554443
26.04 603.862
26.06 601.532593
26.08 604.760498
26.10 613.392334
26.12 609.67926
26.14 603.559448
26.16 603.247009
26.18 604.
26.20 610.250977
26.22 607.199341
26.24 597.619873
26.26 596.815369
26.28 598.182861
26.30 604.303162
26.32 597.923279
26.34 597.448792
26.36 599.229858
26.38 603.757996
26.40 602.279419
26.42 606.379089
26.44 602.731079
26.46 611.09137
26.48 611.940735
26.50 612.543274
26.52 610.133545
26.54 605.403564
26.56 609.257385
26.58 596.088745
26.60 591.583252
26.62 596.859558
26.64 597.284668
26.66 596.515625
26.68 600.215637
26.70 604.129089
26.72 599.130554
26.74 599.606018
26.76 606.690491
26.78 604.704834
26.80 599.246277
26.82 600.943726
26.84 599.543457
26.86 594.99469
26.88 595.981628
26.90 598.460938
26.92 595.679077
26.94 599.030151
26.96 603.223938
26.98 606.29187
27.00 603.788696
27.02 598.615234
27.04 595.618835
27.06 598.269104
27.08 597.024109
27.10 594.345398
27.12 592.036255
27.14 594.428528
27.16 590.28363
27.18 584.813477
27.20 592.463135
27.22 594.971436
27.24 587.987427
27.26 590.18927
27.28 589.810913
27.30 593.706665
27.32 588.080505
27.34 592.559937
27.36 590.389954
27.38 591.805176
27.40 591.024719
27.42 593.36499
27.44 600.234985
27.46 593.532227
27.48 599.801208
27.50 597.93927
27.52 598.857544
27.54 596.592285
27.56 598.665955
27.58 606.488464
27.60 602.115601
27.62 597.525269
27.64 595.205322
27.66 587.755737
27.68 594.16803
27.70 598.278015
27.72 607.150391
27.74 603.530212
27.76 596.299194
27.78 602.141113
27.80 605.709961
27.82 601.277588
27.84 591.075684
27.86 584.756775
27.88 597.619507
27.90 592.436951
27.92 592.271301
27.94 595.312561
27.96 593.32666
27.98 593.640198
28.00 589.095764
28.02 589.814331
28.04 591.140015
28.06 593.896667
28.08 594.902222
28.10 591.672546
28.12 593.655701
28.14 587.405884
28.16 598.991455
28.18 595.932922
28.20 588.994202
28.22 595.907715
28.24 599.075745
28.26 607.769958
28.28 602.28479
28.30 606.74054
28.32 605.764771
28.34 596.070068
28.36 599.816833
28.38 602.172668
28.40 600.870178
28.42 599.074158
28.44 607.013062
28.46 611.936462
28.48 608.975159
28.50 610.504089
28.52 616.160522
28.54 620.219177
28.56 624.286804
28.58 616.304321
28.60 624.87323
28.62 629.199707
28.64 629.000244
28.66 637.089661
28.68 644.461243
28.70 657.704224
28.72 658.193604
28.74 655.359619
28.76 649.792847
28.78 658.842834
28.80 666.992126
28.82 682.258301
28.84 703.207031
28.86 712.903687
28.88 730.077942
28.90 750.315796
28.92 766.921692
28.94 788.201721
28.96 799.452271
28.98 811.806335
29.00 837.003052
29.02 869.561279
29.04 885.493896
29.06 897.265503
29.08 918.044556
29.10 930.376099
29.12 938.167725
29.14 952.638794
29.16 956.591187
29.18 951.617432
29.20 946.592834
29.22 930.940674
29.24 911.361572
29.26 885.136719
29.28 863.233887
29.30 851.081116
29.32 824.717834
29.34 787.770996
29.36 758.680176
29.38 739.23053
29.40 721.53009
29.42 703.693542
29.44 690.305176
29.46 678.312012
29.48 662.128296
29.50 646.525818
29.52 646.006958
29.54 634.845093
29.56 619.878418
29.58 609.131531
29.60 607.341553
29.62 602.838013
29.64 593.090393
29.66 593.601929
29.68 598.436646
29.70 589.963684
29.72 590.285278
29.74 585.229126
29.76 585.315002
29.78 585.062256
29.80 577.147644
29.82 579.170776
29.84 576.722961
29.86 576.573486
29.88 574.966675
29.90 573.330383
29.92 564.170349
29.94 572.457092
29.96 573.400696
29.98 571.403503
30.00 563.632874
30.02 562.226868
30.04 563.646423
30.06 566.235229
30.08 566.746094
30.10 562.989258
30.12 553.2724
30.14 553.916443
30.16 553.70343
30.18 555.054199
30.20 565.098999
30.22 570.671753
30.24 553.556213
30.26 553.64325
30.28 552.769958
30.30 553.308655
30.32 557.020081
30.34 556.905518
30.36 554.010376
30.38 545.54657
30.40 549.545532
30.42 556.681519
30.44 557.863708
30.46 548.590698
30.48 539.940369
30.50 547.673279
30.52 550.955566
30.54 547.907837
30.56 547.316223
30.58 547.191467
30.60 547.173828
30.62 546.422852
30.64 538.278748
30.66 537.181458
30.68 536.584229
30.70 532.626404
30.72 533.050171
30.74 528.09314
30.76 533.164185
30.78 532.304871
30.80 527.129761
30.82 531.083618
30.84 532.059753
30.86 540.30011
30.88 535.642212
30.90 533.853516
30.92 526.520813
30.94 526.876282
30.96 531.060181
30.98 523.269714
31.00 523.282776
31.02 528.82666
31.04 530.797668
31.06 527.806335
31.08 532.188599
31.10 535.384888
31.12 524.508484
31.14 530.643799
31.16 531.455261
31.18 525.49884
31.20 525.322876
31.22 528.609924
31.24 524.943665
31.26 517.534912
31.28 515.82373
31.30 521.885071
31.32 517.34668
31.34 524.11792
31.36 526.510071
31.38 529.306763
31.40 526.430115
31.42 529.228027
31.44 526.625305
31.46 525.101135
31.48 522.803101
31.50 522.196472
31.52 514.439514
31.54 519.057495
31.56 519.571289
31.58 520.802612
31.60 517.189209
31.62 512.258423
31.64 515.596985
31.66 515.023499
31.68 510.102234
31.70 510.310974
31.72 509.410217
31.74 509.28479
31.76 514.968994
31.78 520.216125
31.80 517.520081
31.82 521.553589
31.84 520.079224
31.86 516.402405
31.88 515.751221
31.90 517.410828
31.92 512.235596
31.94 510.201233
31.96 516.430603
31.98 512.480164
32.00 516.906433
32.02 522.5979
32.04 527.215515
32.06 527.390381
32.08 528.299988
32.10 529.55658
32.12 524.234863
32.14 520.651184
32.16 525.518311
32.18 540.71051
32.20 545.548279
32.22 550.131042
32.24 557.641968
32.26 559.892761
32.28 554.785339
32.30 556.669067
32.32 557.322205
32.34 562.052246
32.36 567.573792
32.38 569.980225
32.40 572.518738
32.42 577.245483
32.44 581.04248
32.46 584.619751
32.48 593.207825
32.50 597.826477
32.52 586.975586
32.54 596.795776
32.56 600.72699
32.58 595.774292
32.60 598.675781
32.62 610.010864
32.64 611.142456
32.66 615.446167
32.68 611.729309
32.70 614.532532
32.72 615.998108
32.74 612.663635
32.76 604.376099
32.78 607.076477
32.80 601.232483
32.82 591.769897
32.84 585.196106
32.86 586.430176
32.88 571.20575
32.90 564.739624
32.92 569.217163
32.94 572.952698
32.96 551.796936
32.98 550.659729
33.00 545.740662
33.02 539.239929
33.04 537.741577
33.06 535.978943
33.08 530.508423
33.10 533.224182
33.12 519.873169
33.14 515.909485
33.16 511.760223
33.18 513.813354
33.20 505.943298
33.22 499.963074
33.24 492.71759
33.26 496.36676
33.28 502.474701
33.30 500.129883
33.32 492.27182
33.34 486.630554
33.36 484.65213
33.38 482.215851
33.40 482.87085
33.42 480.088196
33.44 484.295898
33.46 488.479797
33.48 485.3815
33.50 486.433197
33.52 486.917023
33.54 477.025391
33.56 470.18988
33.58 471.398132
33.60 470.99057
33.62 462.402161
33.64 470.036255
33.66 469.892639
33.68 467.950134
33.70 467.363342
33.72 470.522034
33.74 469.46579
33.76 471.120789
33.78 470.991028
33.80 464.303131
33.82 460.110718
33.84 465.836304
33.86 461.354065
33.88 462.818481
33.90 457.702728
33.92 455.903229
33.94 461.588562
33.96 453.010986
33.98 450.022675
34.00 447.759613
34.02 442.104034
34.04 443.70816
34.06 448.304504
34.08 453.54422
34.10 450.332123
34.12 451.763428
34.14 456.82193
34.16 456.617676
34.18 453.515686
34.20 455.343781
34.22 447.577332
34.24 440.386688
34.26 442.42865
34.28 440.441833
34.30 440.650787
34.32 447.453217
34.34 446.902008
34.36 446.061493
34.38 445.134827
34.40 432.942841
34.42 433.147827
34.44 435.267883
34.46 440.394684
34.48 439.643677
34.50 434.935852
34.52 444.825775
34.54 444.426361
34.56 443.512604
34.58 443.628937
34.60 440.038177
34.62 437.627838
34.64 437.218872
34.66 433.438446
34.68 430.367126
34.70 436.246887
34.72 430.667938
34.74 431.647583
34.76 434.795807
34.78 429.763947
34.80 433.672272
34.82 440.978638
34.84 439.49704
34.86 429.178894
34.88 432.694397
34.90 434.518494
34.92 429.945282
34.94 432.37677
34.96 427.381226
34.98 423.843597
35.00 422.261017
35.02 430.194885
35.04 434.331421
35.06 427.725647
35.08 430.513855
35.10 431.732635
35.12 425.91861
35.14 425.828217
35.16 422.080353
35.18 420.808228
35.20 424.658081
35.22 430.172577
35.24 431.567383
35.26 427.68219
35.28 422.557404
35.30 415.303009
35.32 409.773804
35.34 411.630951
35.36 413.818726
35.38 412.342407
35.40 416.031586
35.42 416.098785
35.44 411.026245
35.46 413.399902
35.48 420.245148
35.50 414.20224
35.52 408.152069
35.54 415.367859
35.56 420.605896
35.58 415.548737
35.60 407.143585
35.62 416.210144
35.64 424.905914
35.66 416.197754
35.68 419.372498
35.70 418.703369
35.72 411.335114
35.74 410.958191
35.76 411.936493
35.78 415.477142
35.80 411.562988
35.82 405.575439
35.84 407.638367
35.86 409.887573
35.88 410.683868
35.90 409.347443
35.92 417.963562
35.94 417.546021
35.96 416.98999
35.98 414.947754
36.00 409.72522
36.02 410.728607
36.04 403.944916
36.06 393.770782
36.08 399.708252
36.10 401.311584
36.12 406.579193
36.14 408.216553
36.16 402.825897
36.18 396.299622
36.20 395.892181
36.22 395.430664
36.24 396.637939
36.26 392.839294
36.28 389.155121
36.30 394.225616
36.32 389.57605
36.34 386.430939
36.36 385.435852
36.38 386.871826
36.40 385.491608
36.42 377.300751
36.44 382.683685
36.46 386.74292
36.48 387.608978
36.50 389.527374
36.52 385.65625
36.54 380.98114
36.56 380.659973
36.58 380.525574
36.60 369.980072
36.62 367.443298
36.64 367.318817
36.66 372.314209
36.68 378.609985
36.70 379.081512
36.72 377.990997
36.74 384.326172
36.76 376.78894
36.78 363.220673
36.80 360.454559
36.82 368.423676
36.84 368.131409
36.86 367.460907
36.88 368.396851
36.90 365.48288
36.92 362.134674
36.94 362.530151
36.96 358.663177
36.98 361.663361
37.00 362.506348
37.02 356.516205
37.04 363.4375
37.06 364.006744
37.08 357.269348
37.10 357.07251
37.12 361.937286
37.14 360.889557
37.16 362.761078
37.18 362.508209
37.20 361.144714
37.22 357.227997
37.24 357.060089
37.26 356.596741
37.28 361.089966
37.30 360.62149
37.32 358.86203
37.34 351.401794
37.36 353.415253
37.38 360.179199
37.40 355.534515
37.42 347.520081
37.44 350.485992
37.46 356.752533
37.48 357.634521
37.50 350.885406
37.52 342.678925
37.54 349.708252
37.56 357.093109
37.58 350.494507
37.60 346.79306
37.62 342.631256
37.64 346.496338
37.66 343.612335
37.68 349.506622
37.70 344.446381
37.72 341.374542
37.74 347.942963
37.76 343.963837
37.78 344.758972
37.80 343.830017
37.82 346.27002
37.84 349.01181
37.86 342.68985
37.88 341.001099
37.90 341.087799
37.92 342.596741
37.94 341.413452
37.96 340.390472
37.98 334.096527
38.00 344.486816
38.02 346.49646
38.04 341.201355
38.06 342.509888
38.08 337.165009
38.10 342.565186
38.12 335.260437
38.14 336.446106
38.16 334.02652
38.18 337.379578
38.20 341.44104
38.22 339.631744
38.24 332.236816
38.26 330.899689
38.28 337.048309
38.30 337.106537
38.32 340.730774
38.34 336.272308
38.36 338.636261
38.38 333.724548
38.40 330.60672
38.42 333.314148
38.44 333.697968
38.46 332.353363
38.48 330.926758
38.50 331.201355
38.52 337.338135
38.54 332.172607
38.56 335.457092
38.58 331.843536
38.60 336.944275
38.62 338.025787
38.64 326.232697
38.66 331.294861
38.68 331.955994
38.70 333.686707
38.72 328.207947
38.74 326.810944
38.76 329.149261
38.78 328.207581
38.80 329.570374
38.82 323.818939
38.84 323.610199
38.86 323.953796
38.88 321.662598
38.90 321.166565
38.92 324.457001
38.94 315.592529
38.96 313.037018
38.98 322.64389
39.00 322.428864
39.02 318.642944
39.04 316.591675
39.06 318.34436
39.08 321.705597
39.10 320.060516
39.12 315.035553
39.14 313.586761
39.16 311.266754
39.18 314.230194
39.20 315.060944
39.22 317.177521
39.24 316.199005
39.26 308.246796
39.28 313.80542
39.30 318.151489
39.32 312.673126
39.34 314.743286
39.36 320.38208
39.38 310.842377
39.40 313.335236
39.42 316.086609
39.44 319.86792
39.46 314.405487
39.48 308.823212
39.50 310.904541
39.52 305.219025
39.54 311.533234
39.56 318.79834
39.58 318.771271
39.60 311.014984
39.62 307.398529
39.64 301.201782
39.66 310.240906
39.68 309.459259
39.70 312.707703
39.72 305.394623
39.74 307.028412
39.76 309.634247
39.78 301.581757
39.80 301.795135
39.82 301.905182
39.84 308.226837
39.86 309.924774
39.88 312.67041
39.90 313.366333
39.92 309.804169
39.94 313.664215
39.96 310.814575
39.98 304.919281
40.00 303.212158
