!@!!GADDS PLOTSO FILE: Chi integration type
!@!!Title/SampleName: ML_MAPbX3
!@!!User: NREL
!@!!Site: NREL SERF C211; SN 2510
!@!!Frame: 081022_MLProject_000_005.gfrm
!@!!Wavelengths    1.54184   1.54056   1.54439
!@!!Frame angles: 2Theta: 28.000 Omega: 5.000 Phi: 0.000 Chi: 90.000
!@!!Integration range: 2Theta: 10.000 to 41.100  Gamma: -120.400 to -60.400
!@!!Integration method: bin normalized
!@!N
!@!SS
!@!M
!@!L 0.0 0.0 0.0 0.0
!@!XDegrees
!@!YCounts
10.00 117.308975
10.01 109.822121
10.02 101.205482
10.03 106.688385
10.04 115.687508
10.05 116.622841
10.06 118.838219
10.07 117.270493
10.08 118.958992
10.09 117.681648
10.10 116.002663
10.11 119.121902
10.12 121.475105
10.13 122.912697
10.14 121.971413
10.15 118.829208
10.16 119.798103
10.17 120.219078
10.18 123.914871
10.19 126.805901
10.20 122.31179
10.21 113.528496
10.22 112.638748
10.23 113.18203
10.24 116.527176
10.25 122.435692
10.26 117.979523
10.27 115.514061
10.28 119.966721
10.29 121.276047
10.30 120.286674
10.31 121.33976
10.32 121.131569
10.33 120.980835
10.34 117.548462
10.35 121.266289
10.36 126.734734
10.37 121.329407
10.38 115.815819
10.39 111.251266
10.40 109.105324
10.41 118.694489
10.42 124.759117
10.43 123.885056
10.44 126.053612
10.45 127.421677
10.46 124.55722
10.47 122.971733
10.48 126.874802
10.49 127.856483
10.50 127.720612
10.51 125.478951
10.52 124.220909
10.53 131.263428
10.54 130.409256
10.55 127.132149
10.56 123.502213
10.57 117.894272
10.58 117.832214
10.59 119.383484
10.60 119.785011
10.61 119.799866
10.62 122.686371
10.63 124.290474
10.64 121.163261
10.65 113.641708
10.66 116.585281
10.67 124.551743
10.68 129.584305
10.69 126.499176
10.70 126.306229
10.71 130.143265
10.72 128.839478
10.73 125.131157
10.74 126.430168
10.75 127.588829
10.76 126.819702
10.77 128.666031
10.78 124.069077
10.79 119.477417
10.80 123.089859
10.81 131.507874
10.82 128.648865
10.83 124.039055
10.84 125.77829
10.85 123.385345
10.86 121.299217
10.87 118.619057
10.88 117.417603
10.89 121.214775
10.90 131.18483
10.91 129.869293
10.92 124.366554
10.93 130.727463
10.94 128.790573
10.95 126.359123
10.96 129.262329
10.97 132.464081
10.98 133.501846
10.99 122.823196
11.00 113.80619
11.01 117.278343
11.02 122.85952
11.03 124.774361
11.04 125.321457
11.05 124.726387
11.06 122.328262
11.07 125.740494
11.08 132.65451
11.09 131.685577
11.10 129.107285
11.11 130.281311
11.12 131.810883
11.13 134.637482
11.14 132.894516
11.15 134.116882
11.16 140.240387
11.17 139.248108
11.18 126.208282
11.19 119.361565
11.20 129.902908
11.21 135.600021
11.22 136.122803
11.23 138.493286
11.24 133.98938
11.25 126.440895
11.26 126.069099
11.27 129.182022
11.28 126.288048
11.29 125.980743
11.30 132.827515
11.31 136.714401
11.32 130.703094
11.33 128.565231
11.34 128.197296
11.35 125.362167
11.36 126.090263
11.37 135.293442
11.38 140.793121
11.39 134.95163
11.40 124.313614
11.41 121.42469
11.42 123.945732
11.43 125.039703
11.44 130.315689
11.45 135.032272
11.46 133.867203
11.47 127.770813
11.48 122.883011
11.49 120.510139
11.50 120.910408
11.51 124.364128
11.52 123.255859
11.53 123.189278
11.54 126.004829
11.55 126.713066
11.56 129.810883
11.57 133.930222
11.58 131.303574
11.59 129.761688
11.60 140.591263
11.61 144.572968
11.62 133.928345
11.63 135.223892
11.64 135.012604
11.65 127.68512
11.66 130.195862
11.67 136.010468
11.68 134.377151
11.69 130.077835
11.70 128.189636
11.71 128.571747
11.72 132.148224
11.73 134.344086
11.74 130.256104
11.75 130.904373
11.76 130.948166
11.77 121.177689
11.78 111.268875
11.79 117.646904
11.80 124.563858
11.81 127.760376
11.82 132.97673
11.83 134.43779
11.84 131.803055
11.85 129.955231
11.86 133.263245
11.87 138.653351
11.88 132.526794
11.89 130.474518
11.90 138.343918
11.91 142.934036
11.92 147.071381
11.93 146.032501
11.94 138.941528
11.95 137.794876
11.96 137.291962
11.97 133.861237
11.98 134.750443
11.99 137.017563
12.00 139.8591
12.01 139.461655
12.02 136.169617
12.03 135.095703
12.04 136.123474
12.05 137.055588
12.06 139.140411
12.07 133.136703
12.08 131.490509
12.09 132.566315
12.10 134.035263
12.11 140.340256
12.12 141.905243
12.13 139.25972
12.14 136.331741
12.15 138.427475
12.16 146.5513
12.17 152.202011
12.18 143.130844
12.19 134.143524
12.20 137.002838
12.21 141.414871
12.22 140.668076
12.23 139.331635
12.24 137.238098
12.25 140.728378
12.26 143.951355
12.27 140.911179
12.28 139.565781
12.29 138.5056
12.30 138.818359
12.31 141.33168
12.32 145.147415
12.33 143.741806
12.34 142.541046
12.35 142.428848
12.36 141.904419
12.37 143.735336
12.38 143.959167
12.39 142.625534
12.40 144.994781
12.41 147.127594
12.42 147.502975
12.43 145.785751
12.44 142.746445
12.45 144.215378
12.46 140.287415
12.47 141.223236
12.48 150.458786
12.49 157.109009
12.50 155.666748
12.51 148.51741
12.52 143.431992
12.53 142.383408
12.54 143.816376
12.55 145.495712
12.56 146.81424
12.57 147.894379
12.58 147.908188
12.59 148.920105
12.60 153.327133
12.61 160.275238
12.62 167.494492
12.63 162.667984
12.64 154.114075
12.65 150.915329
12.66 150.401321
12.67 153.846527
12.68 150.581894
12.69 152.268707
12.70 154.298523
12.71 147.435196
12.72 146.237518
12.73 151.012772
12.74 152.571152
12.75 157.239822
12.76 164.776123
12.77 162.411484
12.78 154.986954
12.79 153.148209
12.80 151.968323
12.81 157.327515
12.82 162.539825
12.83 155.457077
12.84 151.846268
12.85 157.029236
12.86 155.125412
12.87 151.92865
12.88 155.672546
12.89 156.871078
12.90 153.699692
12.91 155.968002
12.92 152.783707
12.93 144.947357
12.94 144.858765
12.95 146.694473
12.96 149.37738
12.97 150.381073
12.98 146.173645
12.99 142.743729
13.00 146.535492
13.01 153.167374
13.02 155.04306
13.03 151.731094
13.04 144.462997
13.05 142.39946
13.06 152.911285
13.07 156.186539
13.08 154.037949
13.09 145.859634
13.10 140.984695
13.11 147.277985
13.12 152.419083
13.13 154.662598
13.14 150.81514
13.15 144.945557
13.16 146.902359
13.17 146.646561
13.18 144.983368
13.19 147.429016
13.20 145.032745
13.21 142.375275
13.22 144.659225
13.23 148.121033
13.24 148.045502
13.25 143.018539
13.26 143.875137
13.27 146.060226
13.28 146.791504
13.29 146.330078
13.30 142.487701
13.31 144.166306
13.32 149.618805
13.33 150.302231
13.34 152.39415
13.35 152.988739
13.36 144.043503
13.37 140.274506
13.38 145.430496
13.39 145.305145
13.40 146.431885
13.41 152.151566
13.42 151.517914
13.43 149.127136
13.44 142.44075
13.45 146.156509
13.46 153.947083
13.47 156.733765
13.48 161.500015
13.49 155.445023
13.50 150.376587
13.51 146.741486
13.52 146.926559
13.53 149.955063
13.54 150.620102
13.55 154.46907
13.56 160.617905
13.57 163.34938
13.58 157.674332
13.59 151.40242
13.60 150.599869
13.61 154.023071
13.62 153.461548
13.63 147.196014
13.64 146.292725
13.65 148.81517
13.66 149.19342
13.67 146.981522
13.68 147.897079
13.69 151.743912
13.70 153.809021
13.71 156.585907
13.72 158.058716
13.73 153.298172
13.74 151.375595
13.75 152.957947
13.76 153.90683
13.77 153.294434
13.78 151.636475
13.79 150.94342
13.80 146.669678
13.81 148.838104
13.82 157.537506
13.83 160.110718
13.84 157.10202
13.85 150.426651
13.86 145.041641
13.87 144.842499
13.88 149.703934
13.89 152.570969
13.90 148.489868
13.91 147.989517
13.92 157.761551
13.93 164.804001
13.94 161.240921
13.95 158.147385
13.96 158.681503
13.97 160.93161
13.98 160.011765
13.99 158.304901
14.00 157.695618
14.01 153.372223
14.02 156.005936
14.03 159.418335
14.04 156.960892
14.05 156.692169
14.06 158.698898
14.07 159.99469
14.08 159.997757
14.09 161.990265
14.10 164.817184
14.11 172.082809
14.12 175.321548
14.13 172.893997
14.14 169.024628
14.15 164.952988
14.16 161.673462
14.17 165.48204
14.18 168.138138
14.19 163.157639
14.20 162.919571
14.21 163.41011
14.22 161.582581
14.23 162.170334
14.24 166.571091
14.25 164.422974
14.26 163.737701
14.27 164.635544
14.28 167.414413
14.29 169.871796
14.30 173.49028
14.31 174.098846
14.32 165.890274
14.33 162.671173
14.34 165.251816
14.35 173.368225
14.36 179.507278
14.37 184.535812
14.38 185.341125
14.39 182.219131
14.40 185.481171
14.41 190.452103
14.42 188.321884
14.43 195.272324
14.44 200.182114
14.45 193.082397
14.46 192.800705
14.47 195.380692
14.48 195.151459
14.49 200.294083
14.50 209.51326
14.51 214.451492
14.52 219.757034
14.53 222.124268
14.54 218.701767
14.55 217.711807
14.56 216.082306
14.57 214.70282
14.58 211.472763
14.59 209.605103
14.60 209.441162
14.61 211.321213
14.62 219.899948
14.63 225.990051
14.64 223.147095
14.65 217.198563
14.66 217.44809
14.67 217.678207
14.68 215.992386
14.69 218.9207
14.70 217.713852
14.71 213.861649
14.72 211.423904
14.73 214.186874
14.74 218.397949
14.75 219.954559
14.76 218.556137
14.77 216.135193
14.78 213.002228
14.79 207.917053
14.80 206.276703
14.81 199.345093
14.82 199.367462
14.83 212.462753
14.84 218.200775
14.85 214.210114
14.86 214.15596
14.87 211.7379
14.88 211.387878
14.89 217.478882
14.90 212.697861
14.91 208.624451
14.92 213.427002
14.93 216.934174
14.94 218.559067
14.95 221.462097
14.96 221.714294
14.97 224.450424
14.98 228.384018
14.99 231.03804
15.00 237.813858
15.01 242.646454
15.02 243.095963
15.03 240.836334
15.04 250.423035
15.05 252.27858
15.06 249.161987
15.07 256.489624
15.08 265.528229
15.09 261.532562
15.10 262.27243
15.11 276.828949
15.12 293.71167
15.13 300.337494
15.14 301.713745
15.15 307.238525
15.16 318.360077
15.17 336.488953
15.18 332.083405
15.19 338.010864
15.20 341.184784
15.21 349.852264
15.22 367.748749
15.23 391.386475
15.24 402.280457
15.25 412.207184
15.26 425.63092
15.27 433.699951
15.28 437.648743
15.29 449.889801
15.30 460.300079
15.31 468.726044
15.32 491.256561
15.33 502.305817
15.34 514.411011
15.35 517.382141
15.36 528.344788
15.37 534.94342
15.38 545.190552
15.39 552.632751
15.40 571.54071
15.41 583.864868
15.42 586.960754
15.43 588.144592
15.44 577.650635
15.45 562.384216
15.46 556.456726
15.47 556.372803
15.48 552.096924
15.49 536.220398
15.50 520.166016
15.51 494.078918
15.52 485.712372
15.53 467.302551
15.54 453.727417
15.55 428.585114
15.56 421.750244
15.57 416.970764
15.58 396.114105
15.59 374.478821
15.60 357.527222
15.61 348.575592
15.62 330.260559
15.63 320.641663
15.64 305.000916
15.65 296.449768
15.66 284.460388
15.67 277.560883
15.68 272.9422
15.69 268.729187
15.70 256.49762
15.71 252.911606
15.72 253.582901
15.73 247.687225
15.74 239.413437
15.75 231.002304
15.76 225.69632
15.77 224.398575
15.78 225.872299
15.79 224.975647
15.80 221.831146
15.81 220.848724
15.82 216.687347
15.83 210.434418
15.84 207.76178
15.85 203.566727
15.86 202.833115
15.87 204.957718
15.88 207.075546
15.89 208.628159
15.90 206.228912
15.91 199.982986
15.92 193.084244
15.93 189.245193
15.94 188.127045
15.95 189.79303
15.96 193.86116
15.97 191.760437
15.98 192.223511
15.99 187.624878
16.00 181.91716
16.01 185.723267
16.02 184.967087
16.03 186.791138
16.04 185.601868
16.05 182.31192
16.06 181.846756
16.07 179.454361
16.08 177.864761
16.09 174.728653
16.10 175.554504
16.11 184.551987
16.12 190.065842
16.13 182.931351
16.14 181.799713
16.15 192.784485
16.16 191.208237
16.17 184.208664
16.18 183.498795
16.19 186.852997
16.20 183.830246
16.21 173.745438
16.22 175.718658
16.23 181.613297
16.24 182.28595
16.25 185.870163
16.26 181.779999
16.27 174.159332
16.28 169.668335
16.29 170.037033
16.30 177.144928
16.31 181.920471
16.32 180.07457
16.33 182.117569
16.34 179.387283
16.35 174.05159
16.36 174.513916
16.37 174.01796
16.38 182.805954
16.39 180.973328
16.40 175.852615
16.41 171.979141
16.42 164.556122
16.43 164.100861
16.44 170.23671
16.45 177.010056
16.46 185.905304
16.47 185.820038
16.48 180.167236
16.49 179.511841
16.50 172.148666
16.51 171.553299
16.52 177.123032
16.53 178.780823
16.54 179.12915
16.55 176.281403
16.56 171.78093
16.57 172.008621
16.58 172.78862
16.59 172.028946
16.60 171.029282
16.61 167.080109
16.62 163.86264
16.63 165.205719
16.64 169.312286
16.65 172.771927
16.66 173.256317
16.67 169.936417
16.68 169.495056
16.69 175.615936
16.70 178.48056
16.71 178.643478
16.72 182.444565
16.73 185.018082
16.74 180.991974
16.75 173.013809
16.76 173.224915
16.77 176.818787
16.78 176.757767
16.79 173.44989
16.80 172.052414
16.81 173.245453
16.82 172.185593
16.83 170.826157
16.84 171.997528
16.85 176.558228
16.86 179.799713
16.87 176.731949
16.88 177.505646
16.89 180.448486
16.90 181.495392
16.91 178.172455
16.92 172.15593
16.93 169.687851
16.94 173.056335
16.95 176.787598
16.96 178.779419
16.97 179.475952
16.98 182.286667
16.99 185.242004
17.00 183.366348
17.01 177.74588
17.02 178.085281
17.03 179.854645
17.04 179.010788
17.05 181.003754
17.06 182.736221
17.07 179.456451
17.08 181.107544
17.09 179.815048
17.10 179.196945
17.11 180.930237
17.12 179.175964
17.13 177.525421
17.14 179.95871
17.15 177.558807
17.16 172.874924
17.17 174.425797
17.18 175.989227
17.19 179.710709
17.20 183.646378
17.21 182.99971
17.22 181.893738
17.23 186.474655
17.24 184.17392
17.25 177.01178
17.26 178.339066
17.27 182.851318
17.28 183.902557
17.29 182.96637
17.30 187.738846
17.31 194.000076
17.32 193.472931
17.33 185.361023
17.34 179.987549
17.35 182.379929
17.36 182.530228
17.37 180.652267
17.38 182.904877
17.39 192.176712
17.40 189.275879
17.41 183.452591
17.42 184.265732
17.43 181.101791
17.44 179.107758
17.45 181.591492
17.46 186.162476
17.47 191.23114
17.48 189.406342
17.49 182.086334
17.50 179.909851
17.51 185.092819
17.52 186.82103
17.53 185.239212
17.54 189.790161
17.55 197.112198
17.56 191.021973
17.57 184.886856
17.58 189.794586
17.59 195.270462
17.60 192.538345
17.61 192.571884
17.62 191.905289
17.63 192.058792
17.64 192.337784
17.65 185.68277
17.66 184.516006
17.67 186.699478
17.68 188.791077
17.69 190.086365
17.70 185.749786
17.71 186.30246
17.72 193.431488
17.73 190.191971
17.74 187.749222
17.75 189.653214
17.76 185.443008
17.77 183.62941
17.78 182.978973
17.79 187.542801
17.80 192.429886
17.81 192.258286
17.82 191.110245
17.83 188.834122
17.84 188.632065
17.85 189.745453
17.86 192.194275
17.87 190.526947
17.88 190.279907
17.89 190.319748
17.90 192.426743
17.91 190.842102
17.92 189.440475
17.93 192.809875
17.94 195.38916
17.95 194.323669
17.96 191.94519
17.97 188.953247
17.98 190.400665
17.99 193.369339
18.00 191.041077
18.01 186.027039
18.02 186.538132
18.03 192.97374
18.04 192.483673
18.05 190.211746
18.06 192.592789
18.07 191.541519
18.08 191.326035
18.09 189.983231
18.10 187.012253
18.11 188.488861
18.12 192.718903
18.13 194.068848
18.14 192.482269
18.15 189.768417
18.16 189.946625
18.17 190.963577
18.18 196.947128
18.19 196.297028
18.20 191.617035
18.21 193.167618
18.22 194.35582
18.23 194.381683
18.24 195.244949
18.25 197.197632
18.26 196.538879
18.27 194.73288
18.28 193.114655
18.29 192.41684
18.30 197.574829
18.31 191.052948
18.32 185.897675
18.33 191.921188
18.34 200.577576
18.35 199.626007
18.36 202.188049
18.37 204.645844
18.38 199.407776
18.39 195.463562
18.40 192.147461
18.41 195.611847
18.42 198.245972
18.43 197.452606
18.44 200.319183
18.45 197.343185
18.46 196.116837
18.47 199.16774
18.48 200.982132
18.49 200.235901
18.50 196.866455
18.51 201.810806
18.52 202.68158
18.53 203.562073
18.54 204.618011
18.55 203.867035
18.56 206.575409
18.57 207.515579
18.58 204.399902
18.59 201.729431
18.60 203.545212
18.61 205.531204
18.62 202.783539
18.63 201.342209
18.64 202.009949
18.65 196.968933
18.66 190.485718
18.67 189.270935
18.68 197.333298
18.69 206.179977
18.70 205.903412
18.71 202.791412
18.72 202.34903
18.73 198.757034
18.74 197.993683
18.75 198.474258
18.76 197.556641
18.77 198.010437
18.78 199.869949
18.79 200.268143
18.80 202.582993
18.81 202.438354
18.82 199.669434
18.83 199.200333
18.84 196.958771
18.85 197.460129
18.86 197.781616
18.87 198.736328
18.88 197.929962
18.89 198.216843
18.90 202.303955
18.91 205.177414
18.92 204.716568
18.93 201.906403
18.94 193.850418
18.95 194.017426
18.96 197.399429
18.97 204.095825
18.98 210.428238
18.99 212.160629
19.00 210.910538
19.01 208.774643
19.02 209.230911
19.03 213.439484
19.04 213.58876
19.05 206.520004
19.06 200.1436
19.07 202.52948
19.08 206.346619
19.09 206.78714
19.10 212.049103
19.11 220.277985
19.12 219.168457
19.13 210.456055
19.14 203.327057
19.15 208.068375
19.16 217.546417
19.17 214.233551
19.18 211.426651
19.19 213.14711
19.20 207.698975
19.21 207.022217
19.22 213.439255
19.23 217.225891
19.24 214.903137
19.25 212.969742
19.26 212.712341
19.27 211.983551
19.28 213.897705
19.29 213.102646
19.30 209.156357
19.31 208.32457
19.32 203.957108
19.33 207.795975
19.34 210.837204
19.35 212.111557
19.36 212.497589
19.37 210.136124
19.38 208.376785
19.39 210.441788
19.40 214.281815
19.41 216.223694
19.42 213.235153
19.43 215.766098
19.44 217.010086
19.45 215.405975
19.46 218.698364
19.47 217.798691
19.48 212.662735
19.49 210.85791
19.50 212.709274
19.51 215.730209
19.52 217.990494
19.53 215.981262
19.54 213.976151
19.55 211.027328
19.56 212.235153
19.57 213.708954
19.58 215.072098
19.59 223.02507
19.60 230.965073
19.61 227.908279
19.62 224.624222
19.63 218.471237
19.64 214.525665
19.65 217.487183
19.66 222.91394
19.67 221.614319
19.68 214.421783
19.69 215.078476
19.70 218.683182
19.71 218.451416
19.72 222.500214
19.73 225.380035
19.74 220.291367
19.75 221.656418
19.76 230.511154
19.77 229.690918
19.78 222.762848
19.79 215.623672
19.80 214.873047
19.81 220.701401
19.82 225.065369
19.83 226.634567
19.84 227.044662
19.85 229.852753
19.86 228.580231
19.87 228.393921
19.88 236.982986
19.89 237.582809
19.90 229.650375
19.91 223.385864
19.92 222.450394
19.93 219.49025
19.94 218.64679
19.95 220.684906
19.96 220.619751
19.97 223.422897
19.98 223.659058
19.99 223.240814
20.00 222.227951
20.01 220.891083
20.02 222.119614
20.03 226.810287
20.04 226.736176
20.05 227.686279
20.06 233.510941
20.07 233.184265
20.08 231.533112
20.09 232.343872
20.10 227.99942
20.11 224.108002
20.12 224.066177
20.13 226.02034
20.14 228.846832
20.15 227.812988
20.16 224.172989
20.17 224.730347
20.18 227.71756
20.19 228.145142
20.20 228.891373
20.21 228.062271
20.22 230.948044
20.23 227.991928
20.24 224.414444
20.25 226.899673
20.26 233.638443
20.27 237.668686
20.28 234.207092
20.29 233.869385
20.30 232.489426
20.31 229.676773
20.32 231.784988
20.33 232.18338
20.34 230.097961
20.35 230.821213
20.36 230.828995
20.37 231.856842
20.38 233.721573
20.39 233.988068
20.40 231.339981
20.41 234.048737
20.42 229.681381
20.43 222.459656
20.44 227.591293
20.45 234.6987
20.46 240.391281
20.47 239.754547
20.48 235.572845
20.49 231.432404
20.50 234.956284
20.51 238.845154
20.52 239.425888
20.53 236.197601
20.54 234.244019
20.55 236.526642
20.56 241.318497
20.57 245.084137
20.58 241.864014
20.59 238.072235
20.60 236.22612
20.61 233.810471
20.62 237.604416
20.63 240.576431
20.64 243.493256
20.65 241.549789
20.66 242.018066
20.67 245.096436
20.68 241.665314
20.69 238.896515
20.70 237.658234
20.71 237.773254
20.72 245.096313
20.73 249.732025
20.74 250.977356
20.75 246.503708
20.76 242.619705
20.77 241.780258
20.78 240.994186
20.79 239.870911
20.80 241.04361
20.81 243.306854
20.82 245.085373
20.83 247.814178
20.84 249.60051
20.85 251.067505
20.86 253.268692
20.87 250.484787
20.88 246.489456
20.89 245.162292
20.90 245.128128
20.91 245.219055
20.92 243.660599
20.93 242.535095
20.94 244.336563
20.95 246.907608
20.96 251.406982
20.97 248.966095
20.98 241.602707
20.99 240.694214
21.00 241.753937
21.01 246.747726
21.02 242.644836
21.03 245.985825
21.04 253.642502
21.05 251.675232
21.06 249.032486
21.07 253.506561
21.08 251.636627
21.09 245.028061
21.10 247.128189
21.11 250.978653
21.12 251.744003
21.13 251.028534
21.14 249.327637
21.15 247.390244
21.16 248.295898
21.17 253.24556
21.18 257.479584
21.19 256.584259
21.20 252.231613
21.21 249.609924
21.22 245.34314
21.23 248.691864
21.24 256.529572
21.25 263.089294
21.26 254.91008
21.27 248.42511
21.28 252.034332
21.29 254.546127
21.30 254.371307
21.31 254.463104
21.32 248.439514
21.33 249.160309
21.34 254.373093
21.35 254.881104
21.36 255.08989
21.37 255.938354
21.38 255.690872
21.39 258.670319
21.40 256.939758
21.41 253.868057
21.42 257.686584
21.43 256.309601
21.44 251.50563
21.45 259.062531
21.46 264.425812
21.47 261.858643
21.48 257.449127
21.49 252.686203
21.50 256.555115
21.51 259.360962
21.52 254.431824
21.53 250.043716
21.54 255.805923
21.55 261.211243
21.56 267.11084
21.57 269.28949
21.58 268.98407
21.59 270.81839
21.60 265.744324
21.61 262.890533
21.62 263.836334
21.63 266.256927
21.64 270.064728
21.65 276.764465
21.66 278.088898
21.67 271.380188
21.68 269.367706
21.69 270.306915
21.70 267.517059
21.71 265.726318
21.72 266.605957
21.73 265.94986
21.74 269.442291
21.75 273.890045
21.76 273.588593
21.77 273.248047
21.78 276.8302
21.79 276.356049
21.80 276.150238
21.81 284.49472
21.82 286.570465
21.83 286.344086
21.84 288.608612
21.85 283.522858
21.86 274.756042
21.87 270.8992
21.88 270.295746
21.89 273.335175
21.90 271.931366
21.91 269.37381
21.92 271.116974
21.93 277.973724
21.94 289.692566
21.95 294.035065
21.96 291.337311
21.97 288.751007
21.98 279.272583
21.99 270.187073
22.00 267.13562
22.01 269.98468
22.02 273.997589
22.03 272.548828
22.04 274.237
22.05 280.363586
22.06 281.213837
22.07 277.062317
22.08 270.774567
22.09 267.740906
22.10 271.217407
22.11 271.93103
22.12 274.533569
22.13 274.032227
22.14 274.773102
22.15 281.141815
22.16 276.561584
22.17 266.7547
22.18 263.143372
22.19 265.944611
22.20 270.903015
22.21 271.241394
22.22 268.277252
22.23 270.665436
22.24 275.820801
22.25 272.486633
22.26 271.573822
22.27 274.024658
22.28 273.802917
22.29 273.021271
22.30 274.099915
22.31 276.902832
22.32 281.755829
22.33 279.345856
22.34 278.181549
22.35 275.501343
22.36 269.023651
22.37 269.985291
22.38 270.912903
22.39 272.700928
22.40 280.554077
22.41 282.657562
22.42 284.068878
22.43 280.788818
22.44 276.31131
22.45 270.256653
22.46 269.812256
22.47 273.882538
22.48 277.776306
22.49 277.484222
22.50 271.051636
22.51 267.767303
22.52 267.908875
22.53 267.856567
22.54 267.05481
22.55 268.40332
22.56 272.435699
22.57 274.365173
22.58 275.737732
22.59 274.592651
22.60 274.271484
22.61 273.049042
22.62 269.50824
22.63 273.500183
22.64 281.413879
22.65 279.326141
22.66 277.390656
22.67 276.636871
22.68 275.238586
22.69 273.69696
22.70 275.40506
22.71 273.894379
22.72 273.094299
22.73 279.734802
22.74 280.60141
22.75 280.046631
22.76 285.925964
22.77 285.817596
22.78 280.295868
22.79 272.701935
22.80 275.410797
22.81 279.267212
22.82 276.443542
22.83 276.296173
22.84 279.339294
22.85 278.121124
22.86 273.670593
22.87 273.772919
22.88 275.712219
22.89 275.526123
22.90 276.192719
22.91 276.664734
22.92 276.287506
22.93 276.012787
22.94 279.097504
22.95 279.864838
22.96 278.742615
22.97 280.658569
22.98 285.485107
22.99 285.901703
23.00 282.489838
23.01 284.182983
23.02 291.32132
23.03 285.894257
23.04 280.316956
23.05 281.630798
23.06 281.493713
23.07 282.513336
23.08 286.694061
23.09 283.531586
23.10 285.382813
23.11 284.099243
23.12 282.336273
23.13 280.334076
23.14 275.350403
23.15 271.455902
23.16 278.255188
23.17 284.434418
23.18 284.942535
23.19 286.760345
23.20 286.186646
23.21 280.499237
23.22 280.849731
23.23 283.700867
23.24 283.307739
23.25 281.474487
23.26 279.108917
23.27 276.472961
23.28 283.676178
23.29 289.521057
23.30 284.59549
23.31 281.937958
23.32 283.257904
23.33 286.607666
23.34 290.037872
23.35 292.105988
23.36 288.040955
23.37 283.285187
23.38 286.095062
23.39 284.239807
23.40 282.552094
23.41 280.508942
23.42 275.809662
23.43 278.730591
23.44 285.420868
23.45 282.372803
23.46 284.92981
23.47 288.39502
23.48 284.826263
23.49 285.798065
23.50 288.549652
23.51 289.369934
23.52 289.66037
23.53 289.48233
23.54 283.762634
23.55 279.277069
23.56 287.405243
23.57 290.749969
23.58 286.929474
23.59 290.524628
23.60 286.868042
23.61 279.782471
23.62 279.969696
23.63 276.335052
23.64 274.545349
23.65 274.349915
23.66 281.630554
23.67 290.511139
23.68 291.270355
23.69 288.459167
23.70 283.057495
23.71 282.224335
23.72 289.167603
23.73 296.269775
23.74 293.466858
23.75 290.826355
23.76 292.761688
23.77 290.255127
23.78 281.267609
23.79 276.678741
23.80 283.184784
23.81 291.018188
23.82 290.420105
23.83 284.07843
23.84 284.880341
23.85 283.938873
23.86 284.408417
23.87 282.266327
23.88 282.587616
23.89 285.486572
23.90 283.086548
23.91 280.683685
23.92 280.536224
23.93 282.135193
23.94 284.295898
23.95 286.828491
23.96 286.677765
23.97 283.883972
23.98 287.158478
23.99 292.106934
24.00 291.350952
24.01 291.876007
24.02 297.871796
24.03 292.477264
24.04 287.511017
24.05 287.401947
24.06 289.57077
24.07 291.699921
24.08 291.083527
24.09 290.163177
24.10 287.451447
24.11 286.117676
24.12 288.862244
24.13 287.551514
24.14 282.082642
24.15 284.715637
24.16 290.410278
24.17 292.078247
24.18 289.951843
24.19 286.851257
24.20 288.347626
24.21 288.844971
24.22 290.054291
24.23 287.949402
24.24 279.095856
24.25 277.858734
24.26 281.829834
24.27 287.515656
24.28 293.235382
24.29 290.192505
24.30 283.543671
24.31 285.062897
24.32 294.467926
24.33 299.332458
24.34 298.790619
24.35 294.566467
24.36 291.473999
24.37 293.513275
24.38 293.285156
24.39 290.739655
24.40 286.094971
24.41 293.245483
24.42 294.177856
24.43 287.209961
24.44 282.127106
24.45 284.063843
24.46 286.131653
24.47 288.308716
24.48 292.055206
24.49 295.546936
24.50 300.700378
24.51 303.616302
24.52 300.17981
24.53 291.823822
24.54 284.596863
24.55 281.147095
24.56 282.097076
24.57 289.66925
24.58 293.493408
24.59 289.202301
24.60 285.118378
24.61 286.706573
24.62 293.256775
24.63 293.050049
24.64 289.194275
24.65 290.36972
24.66 296.906647
24.67 299.403534
24.68 299.689178
24.69 294.925079
24.70 283.848114
24.71 280.689606
24.72 286.002991
24.73 290.474823
24.74 292.168884
24.75 295.934814
24.76 294.571106
24.77 292.699188
24.78 294.410156
24.79 296.008789
24.80 292.073822
24.81 291.738647
24.82 293.644714
24.83 292.007141
24.84 297.208282
24.85 300.971466
24.86 297.824646
24.87 293.441711
24.88 287.606567
24.89 284.879089
24.90 292.172577
24.91 299.553986
24.92 295.612579
24.93 292.718079
24.94 295.077026
24.95 292.522949
24.96 293.463776
24.97 294.06665
24.98 292.964752
24.99 296.068237
25.00 293.52951
25.01 290.55246
25.02 288.129761
25.03 290.144623
25.04 292.433807
25.05 295.062225
25.06 302.227051
25.07 301.687195
25.08 296.299438
25.09 298.065521
25.10 297.752655
25.11 294.678711
25.12 292.017395
25.13 288.900482
25.14 292.330322
25.15 294.272552
25.16 292.614777
25.17 287.764404
25.18 283.825653
25.19 285.418182
25.20 295.383545
25.21 294.384277
25.22 293.553345
25.23 299.854645
25.24 295.443024
25.25 291.129242
25.26 294.725555
25.27 296.720001
25.28 291.354095
25.29 290.435211
25.30 288.776245
25.31 292.764313
25.32 301.406586
25.33 300.644897
25.34 297.66983
25.35 292.673035
25.36 292.415894
25.37 296.34964
25.38 297.131989
25.39 291.823273
25.40 285.361237
25.41 281.970459
25.42 283.203735
25.43 281.624664
25.44 286.090149
25.45 292.919128
25.46 294.440186
25.47 292.242767
25.48 294.675507
25.49 291.374329
25.50 287.175446
25.51 288.597107
25.52 293.679932
25.53 292.535889
25.54 289.84787
25.55 286.349792
25.56 284.883057
25.57 287.660126
25.58 293.560242
25.59 290.585907
25.60 284.352386
25.61 276.295929
25.62 279.429535
25.63 286.661377
25.64 287.002991
25.65 284.516022
25.66 288.786743
25.67 292.615784
25.68 295.105194
25.69 301.286621
25.70 300.884888
25.71 301.504974
25.72 299.949219
25.73 293.086273
25.74 291.080902
25.75 294.501007
25.76 288.040588
25.77 287.042084
25.78 298.742371
25.79 296.221069
25.80 285.736633
25.81 286.112915
25.82 286.479584
25.83 281.318329
25.84 277.843567
25.85 284.59671
25.86 290.388275
25.87 287.641968
25.88 281.703461
25.89 277.529663
25.90 278.551331
25.91 280.288269
25.92 285.305084
25.93 289.209473
25.94 291.487579
25.95 291.523804
25.96 292.783966
25.97 292.426514
25.98 288.815186
25.99 291.115265
26.00 292.153107
26.01 289.329926
26.02 285.248047
26.03 289.028839
26.04 289.304047
26.05 286.240051
26.06 287.949127
26.07 287.609802
26.08 287.278778
26.09 289.326752
26.10 290.454773
26.11 292.659576
26.12 291.790131
26.13 289.569183
26.14 286.912262
26.15 284.936157
26.16 287.179749
26.17 289.679962
26.18 295.407043
26.19 294.883972
26.20 288.04538
26.21 286.511047
26.22 289.115662
26.23 288.24704
26.24 284.534668
26.25 286.572235
26.26 291.05661
26.27 286.846222
26.28 289.663147
26.29 292.678497
26.30 283.827484
26.31 282.29361
26.32 282.313202
26.33 278.230896
26.34 283.306946
26.35 282.30072
26.36 282.623474
26.37 284.992615
26.38 288.253876
26.39 284.8703
26.40 280.481262
26.41 283.246643
26.42 283.257813
26.43 282.186646
26.44 283.515137
26.45 284.807922
26.46 285.297089
26.47 285.481812
26.48 286.101807
26.49 292.740875
26.50 292.686584
26.51 289.500549
26.52 288.793304
26.53 288.551392
26.54 287.278625
26.55 287.71582
26.56 287.313049
26.57 291.710388
26.58 291.269348
26.59 287.460815
26.60 288.875519
26.61 287.372894
26.62 281.766937
26.63 279.253021
26.64 277.3302
26.65 282.921326
26.66 288.221191
26.67 284.27533
26.68 284.089294
26.69 286.403931
26.70 285.307281
26.71 289.046417
26.72 290.797058
26.73 286.157471
26.74 279.480316
26.75 275.551788
26.76 281.781982
26.77 289.417023
26.78 289.98587
26.79 288.347198
26.80 289.210724
26.81 293.79892
26.82 295.757355
26.83 294.266571
26.84 291.278778
26.85 290.369476
26.86 294.858368
26.87 296.103577
26.88 291.931091
26.89 286.595612
26.90 285.17218
26.91 282.996918
26.92 278.738983
26.93 279.681702
26.94 283.169495
26.95 285.18338
26.96 289.398987
26.97 290.776428
26.98 285.519379
26.99 285.644348
27.00 288.287415
27.01 286.821716
27.02 285.177429
27.03 280.401123
27.04 275.766907
27.05 272.059906
27.06 272.920166
27.07 272.528442
27.08 272.325745
27.09 276.40921
27.10 282.005585
27.11 284.800201
27.12 285.78833
27.13 284.61026
27.14 280.501648
27.15 276.350677
27.16 275.58548
27.17 277.51944
27.18 281.081909
27.19 282.884338
27.20 280.773041
27.21 283.140778
27.22 285.067535
27.23 282.93866
27.24 285.673523
27.25 286.553192
27.26 289.772583
27.27 291.316711
27.28 285.1492
27.29 279.598938
27.30 278.917664
27.31 278.773712
27.32 280.65329
27.33 282.358337
27.34 286.39212
27.35 287.278137
27.36 288.463196
27.37 292.287476
27.38 290.691956
27.39 289.972504
27.40 286.23233
27.41 282.536316
27.42 283.257416
27.43 283.320251
27.44 284.100952
27.45 284.965973
27.46 281.735748
27.47 278.962189
27.48 276.72345
27.49 274.08606
27.50 272.58139
27.51 278.864777
27.52 286.29541
27.53 283.219513
27.54 284.841797
27.55 287.746674
27.56 287.963776
27.57 285.80719
27.58 279.514069
27.59 277.308563
27.60 278.928894
27.61 280.158325
27.62 282.466766
27.63 284.208954
27.64 285.277008
27.65 288.195587
27.66 288.380676
27.67 284.704163
27.68 278.680084
27.69 279.473969
27.70 280.554169
27.71 284.273438
27.72 287.626068
27.73 285.143555
27.74 284.134369
27.75 283.671478
27.76 279.70813
27.77 279.085358
27.78 281.832092
27.79 285.087006
27.80 287.328827
27.81 288.841797
27.82 287.456421
27.83 284.430176
27.84 281.492401
27.85 278.936066
27.86 277.44165
27.87 283.568481
27.88 288.09079
27.89 285.440674
27.90 282.841217
27.91 279.340942
27.92 279.171478
27.93 279.127655
27.94 283.634796
27.95 286.799957
27.96 281.108398
27.97 278.027557
27.98 277.887115
27.99 275.593079
28.00 274.273987
28.01 270.983276
28.02 273.206665
28.03 276.502106
28.04 278.487762
28.05 279.21283
28.06 273.858978
28.07 268.747986
28.08 266.883667
28.09 270.941162
28.10 281.338623
28.11 287.859558
28.12 287.852325
28.13 285.692474
28.14 285.889862
28.15 287.229584
28.16 286.701752
28.17 283.269592
28.18 283.843323
28.19 286.617767
28.20 287.086456
28.21 281.311676
28.22 277.39209
28.23 278.286133
28.24 281.853363
28.25 278.781769
28.26 276.566315
28.27 275.61438
28.28 273.952881
28.29 273.401764
28.30 279.211121
28.31 287.139374
28.32 284.444366
28.33 282.052979
28.34 280.742096
28.35 281.446899
28.36 284.287659
28.37 280.824524
28.38 277.60202
28.39 280.470947
28.40 277.746399
28.41 278.990143
28.42 283.396423
28.43 283.629456
28.44 284.943268
28.45 284.056702
28.46 283.054993
28.47 282.470032
28.48 283.117615
28.49 282.228455
28.50 285.511902
28.51 283.87262
28.52 279.464996
28.53 277.372589
28.54 273.319183
28.55 273.116699
28.56 272.672119
28.57 273.723175
28.58 276.009216
28.59 278.34021
28.60 279.845062
28.61 280.168671
28.62 282.895538
28.63 282.39624
28.64 278.328033
28.65 278.463135
28.66 280.719147
28.67 280.533997
28.68 277.463623
28.69 280.196167
28.70 284.199799
28.71 283.968079
28.72 278.719666
28.73 271.251404
28.74 269.799011
28.75 267.687134
28.76 273.012177
28.77 276.576447
28.78 272.089874
28.79 269.502045
28.80 272.693359
28.81 274.870453
28.82 280.431
28.83 278.97757
28.84 277.285919
28.85 279.708832
28.86 277.433868
28.87 269.292633
28.88 269.920532
28.89 273.525574
28.90 273.12677
28.91 276.098663
28.92 277.606079
28.93 280.594635
28.94 283.569672
28.95 278.984192
28.96 273.867279
28.97 271.943726
28.98 270.77063
28.99 266.68161
29.00 265.581512
29.01 265.391907
29.02 263.136597
29.03 268.635193
29.04 274.162476
29.05 274.985535
29.06 274.645142
29.07 274.112488
29.08 270.708557
29.09 269.126892
29.10 273.87561
29.11 276.55011
29.12 277.753632
29.13 274.730591
29.14 271.660858
29.15 274.257843
29.16 277.982422
29.17 280.120941
29.18 279.307129
29.19 276.454376
29.20 274.532867
29.21 271.493652
29.22 273.190308
29.23 276.52655
29.24 277.737488
29.25 276.734192
29.26 283.950806
29.27 289.502991
29.28 284.187286
29.29 277.94873
29.30 283.286621
29.31 287.66095
29.32 288.005463
29.33 286.225464
29.34 283.179138
29.35 279.892517
29.36 279.714417
29.37 280.944427
29.38 286.583313
29.39 286.211945
29.40 280.664734
29.41 278.525452
29.42 274.056335
29.43 271.670044
29.44 281.699768
29.45 287.994598
29.46 291.677063
29.47 288.932983
29.48 288.914215
29.49 292.428406
29.50 292.203705
29.51 291.152496
29.52 293.099915
29.53 290.980377
29.54 290.130371
29.55 288.685059
29.56 288.62207
29.57 287.367798
29.58 284.146637
29.59 286.771332
29.60 286.198669
29.61 276.922394
29.62 273.371704
29.63 276.667816
29.64 280.697571
29.65 285.707672
29.66 285.317841
29.67 285.705475
29.68 286.574127
29.69 280.997192
29.70 275.328857
29.71 273.767456
29.72 275.422241
29.73 274.372589
29.74 279.112213
29.75 280.49939
29.76 274.962585
29.77 270.767731
29.78 275.372162
29.79 276.118561
29.80 269.002472
29.81 277.449188
29.82 282.287811
29.83 282.538727
29.84 280.574585
29.85 274.976807
29.86 270.181824
29.87 270.658325
29.88 274.543457
29.89 275.582428
29.90 276.951385
29.91 276.637665
29.92 277.251587
29.93 284.217712
29.94 284.960236
29.95 278.355835
29.96 275.488495
29.97 273.441803
29.98 274.553406
29.99 275.253815
30.00 274.630554
30.01 276.377258
30.02 280.808075
30.03 278.656189
30.04 269.855194
30.05 267.69989
30.06 266.94754
30.07 268.875122
30.08 270.449127
30.09 269.664337
30.10 270.911835
30.11 273.805115
30.12 276.722382
30.13 273.593323
30.14 275.304169
30.15 278.607147
30.16 279.297211
30.17 277.89328
30.18 281.34024
30.19 285.040253
30.20 279.825623
30.21 277.61557
30.22 279.22168
30.23 271.877014
30.24 269.000366
30.25 271.390808
30.26 270.722321
30.27 268.166901
30.28 268.604919
30.29 267.943848
30.30 269.617279
30.31 268.52179
30.32 268.218201
30.33 267.888672
30.34 266.031403
30.35 268.091583
30.36 271.555115
30.37 271.892975
30.38 270.452301
30.39 270.354401
30.40 273.329132
30.41 271.814209
30.42 268.703979
30.43 265.733734
30.44 266.514435
30.45 274.327423
30.46 280.15744
30.47 281.457672
30.48 282.412048
30.49 280.890656
30.50 280.034485
30.51 280.839844
30.52 278.299347
30.53 273.68515
30.54 272.069916
30.55 275.516541
30.56 281.039978
30.57 287.630005
30.58 284.657684
30.59 279.40509
30.60 283.397797
30.61 286.128418
30.62 282.508972
30.63 280.769104
30.64 279.663635
30.65 277.213989
30.66 276.7146
30.67 272.23111
30.68 269.834656
30.69 273.146149
30.70 280.50116
30.71 282.061554
30.72 282.400604
30.73 282.797211
30.74 281.047943
30.75 277.47525
30.76 279.391205
30.77 279.942322
30.78 282.103149
30.79 284.230988
30.80 284.379883
30.81 288.828827
30.82 294.512878
30.83 290.248169
30.84 283.184387
30.85 284.933258
30.86 288.772949
30.87 288.142181
30.88 291.05014
30.89 295.624878
30.90 292.590027
30.91 286.03653
30.92 289.484497
30.93 296.301666
30.94 300.318542
30.95 303.857605
30.96 300.68338
30.97 299.563507
30.98 305.352417
30.99 310.492676
31.00 316.627563
31.01 322.47467
31.02 330.470276
31.03 333.094452
31.04 336.589905
31.05 340.999115
31.06 348.878632
31.07 353.003571
31.08 355.024597
31.09 359.456879
31.10 366.879028
31.11 370.765442
31.12 375.3992
31.13 378.41449
31.14 376.961365
31.15 385.006042
31.16 392.789215
31.17 395.789642
31.18 396.678772
31.19 395.267212
31.20 399.634491
31.21 399.975433
31.22 389.022705
31.23 387.836304
31.24 384.732391
31.25 378.502289
31.26 377.4552
31.27 376.809601
31.28 375.238098
31.29 372.355225
31.30 359.133453
31.31 347.569855
31.32 342.893707
31.33 339.740875
31.34 337.803436
31.35 326.836182
31.36 327.562439
31.37 326.451538
31.38 317.920715
31.39 310.476135
31.40 305.847565
31.41 301.016937
31.42 299.735168
31.43 298.671997
31.44 291.934052
31.45 289.945068
31.46 285.355743
31.47 277.880951
31.48 272.689606
31.49 275.177612
31.50 279.261292
31.51 278.074188
31.52 274.203247
31.53 268.851654
31.54 265.775421
31.55 266.721741
31.56 269.041138
31.57 265.830078
31.58 265.866058
31.59 266.082916
31.60 259.531586
31.61 261.212311
31.62 269.248657
31.63 269.364899
31.64 264.235657
31.65 261.583221
31.66 263.235046
31.67 262.545135
31.68 260.475067
31.69 262.915131
31.70 265.016785
31.71 264.750549
31.72 259.247589
31.73 257.530243
31.74 257.893311
31.75 256.701385
31.76 258.988281
31.77 261.424347
31.78 259.5849
31.79 259.605713
31.80 252.956177
31.81 246.044708
31.82 249.648895
31.83 249.356339
31.84 253.561127
31.85 261.015564
31.86 260.711609
31.87 252.984131
31.88 253.086212
31.89 257.162598
31.90 256.021057
31.91 256.302765
31.92 256.307526
31.93 253.920837
31.94 255.13591
31.95 258.622284
31.96 258.035736
31.97 255.731262
31.98 250.282425
31.99 248.073944
32.00 250.092087
32.01 252.274841
32.02 254.880936
32.03 254.84198
32.04 252.102295
32.05 254.706467
32.06 258.601807
32.07 259.188538
32.08 257.251282
32.09 257.225372
32.10 255.29744
32.11 257.026367
32.12 256.284271
32.13 255.387573
32.14 249.959442
32.15 240.732224
32.16 241.499054
32.17 242.381592
32.18 242.436554
32.19 248.486588
32.20 250.662125
32.21 248.879425
32.22 251.820511
32.23 250.217422
32.24 247.146133
32.25 248.394455
32.26 250.225601
32.27 249.986099
32.28 251.270325
32.29 250.941696
32.30 252.688385
32.31 253.889999
32.32 251.495758
32.33 251.137161
32.34 252.102448
32.35 248.402573
32.36 244.266266
32.37 237.580261
32.38 237.141251
32.39 241.769089
32.40 241.867722
32.41 242.954437
32.42 247.88414
32.43 248.201538
32.44 247.466705
32.45 247.829498
32.46 247.309525
32.47 250.665405
32.48 254.415604
32.49 244.517181
32.50 239.425583
32.51 240.581253
32.52 240.572174
32.53 242.058273
32.54 243.842834
32.55 241.792465
32.56 237.637405
32.57 237.547913
32.58 237.594009
32.59 237.529846
32.60 238.309296
32.61 239.839035
32.62 242.072174
32.63 245.703964
32.64 246.347321
32.65 246.583237
32.66 249.094025
32.67 246.541107
32.68 243.817368
32.69 243.272842
32.70 242.916077
32.71 245.10582
32.72 246.653732
32.73 246.499939
32.74 240.999802
32.75 240.86377
32.76 242.984161
32.77 238.638382
32.78 235.182587
32.79 237.272278
32.80 239.711929
32.81 247.020355
32.82 252.746155
32.83 249.504227
32.84 248.029816
32.85 247.056366
32.86 242.259628
32.87 238.216125
32.88 239.103317
32.89 241.682602
32.90 239.488159
32.91 239.654388
32.92 242.987488
32.93 239.175903
32.94 240.825256
32.95 246.877701
32.96 247.557083
32.97 245.19162
32.98 242.082047
32.99 238.712204
33.00 236.321793
33.01 232.201447
33.02 232.745209
33.03 240.71167
33.04 242.635757
33.05 239.383698
33.06 238.573715
33.07 238.735733
33.08 237.718506
33.09 237.141525
33.10 239.489914
33.11 241.060318
33.12 238.029785
33.13 237.19136
33.14 240.139725
33.15 238.691666
33.16 235.615646
33.17 235.068024
33.18 236.062668
33.19 237.785187
33.20 235.756363
33.21 235.301819
33.22 235.112213
33.23 236.390289
33.24 240.514526
33.25 240.829269
33.26 236.501602
33.27 236.756134
33.28 238.994385
33.29 240.431198
33.30 241.432877
33.31 237.906677
33.32 237.1828
33.33 237.797852
33.34 234.901794
33.35 236.323486
33.36 235.107269
33.37 230.600433
33.38 231.499313
33.39 233.060959
33.40 233.642365
33.41 235.423462
33.42 235.245132
33.43 232.135803
33.44 232.729797
33.45 234.24762
33.46 232.472763
33.47 233.306061
33.48 236.611771
33.49 236.231644
33.50 235.655258
33.51 239.891632
33.52 238.32135
33.53 235.645386
33.54 234.556732
33.55 232.454849
33.56 232.803192
33.57 233.347946
33.58 232.765289
33.59 232.049667
33.60 229.569016
33.61 226.42894
33.62 225.691772
33.63 230.987442
33.64 234.468674
33.65 231.381607
33.66 229.273895
33.67 231.240158
33.68 230.62822
33.69 229.642181
33.70 228.562241
33.71 227.299713
33.72 227.459442
33.73 224.516754
33.74 223.695648
33.75 226.508896
33.76 230.87915
33.77 229.825104
33.78 226.059097
33.79 227.36969
33.80 232.32637
33.81 233.223068
33.82 233.08287
33.83 235.846603
33.84 236.94072
33.85 232.491486
33.86 226.383667
33.87 222.34787
33.88 225.635757
33.89 224.525528
33.90 219.730621
33.91 221.724121
33.92 223.331879
33.93 222.279556
33.94 226.562836
33.95 228.289246
33.96 228.705536
33.97 232.615234
33.98 229.971481
33.99 223.78093
34.00 225.067261
34.01 223.531509
34.02 224.879059
34.03 227.239471
34.04 222.931961
34.05 219.041428
34.06 218.55101
34.07 220.421036
34.08 224.468445
34.09 223.513153
34.10 224.967438
34.11 227.148132
34.12 226.592102
34.13 226.581543
34.14 230.727081
34.15 228.18132
34.16 225.659103
34.17 227.646591
34.18 228.067108
34.19 226.278625
34.20 226.960815
34.21 227.099457
34.22 220.837875
34.23 218.450165
34.24 223.825958
34.25 226.454758
34.26 227.690048
34.27 226.200562
34.28 219.195221
34.29 218.504288
34.30 222.386047
34.31 224.270004
34.32 226.296387
34.33 224.867004
34.34 224.619507
34.35 225.357849
34.36 225.513199
34.37 220.494324
34.38 217.946945
34.39 218.259079
34.40 220.12146
34.41 226.646286
34.42 230.268143
34.43 230.176315
34.44 227.06543
34.45 225.572128
34.46 228.423782
34.47 230.349609
34.48 229.215149
34.49 228.119003
34.50 227.083237
34.51 226.146057
34.52 227.288101
34.53 231.052094
34.54 228.330734
34.55 228.603638
34.56 230.663498
34.57 231.386261
34.58 229.368912
34.59 228.237228
34.60 235.818619
34.61 236.670837
34.62 236.202927
34.63 236.195465
34.64 235.679672
34.65 239.132828
34.66 237.97319
34.67 231.165939
34.68 233.205154
34.69 240.914444
34.70 242.429062
34.71 240.98671
34.72 238.681931
34.73 237.857834
34.74 240.503693
34.75 236.754242
34.76 232.938705
34.77 232.303528
34.78 235.057297
34.79 239.126663
34.80 237.898926
34.81 237.943665
34.82 240.146866
34.83 243.611038
34.84 248.552094
34.85 250.319153
34.86 246.450928
34.87 244.729828
34.88 245.206451
34.89 244.179199
34.90 245.490692
34.91 249.291824
34.92 245.421646
34.93 238.072113
34.94 241.201538
34.95 245.764038
34.96 246.268372
34.97 245.404724
34.98 241.958405
34.99 240.598663
35.00 239.538071
35.01 237.837646
35.02 237.376099
35.03 236.650131
35.04 239.14328
35.05 242.217926
35.06 235.422623
35.07 232.084305
35.08 237.001953
35.09 235.583023
35.10 233.239746
35.11 232.988129
35.12 234.315414
35.13 234.980713
35.14 233.528473
35.15 232.085419
35.16 233.401657
35.17 234.494659
35.18 235.909363
35.19 236.900818
35.20 235.175354
35.21 227.000229
35.22 225.512558
35.23 231.311447
35.24 229.977493
35.25 230.223328
35.26 234.529678
35.27 234.566116
35.28 226.504852
35.29 221.932587
35.30 216.784744
35.31 212.835526
35.32 217.291656
35.33 219.109711
35.34 218.819534
35.35 215.464127
35.36 212.406448
35.37 212.766922
35.38 211.169724
35.39 209.593903
35.40 212.725739
35.41 215.574142
35.42 213.88446
35.43 209.889587
35.44 203.651611
35.45 203.622116
35.46 205.639786
35.47 204.051346
35.48 204.509689
35.49 205.343353
35.50 201.389633
35.51 197.548218
35.52 201.204117
35.53 205.560394
35.54 208.349167
35.55 207.584686
35.56 208.928818
35.57 208.105484
35.58 204.420746
35.59 205.566483
35.60 206.472107
35.61 202.855911
35.62 197.824158
35.63 194.680008
35.64 191.300568
35.65 192.403183
35.66 196.69397
35.67 200.272568
35.68 199.995102
35.69 198.852997
35.70 197.686844
35.71 193.464905
35.72 191.68663
35.73 195.236267
35.74 198.684021
35.75 197.427414
35.76 196.098999
35.77 196.544632
35.78 195.467545
35.79 193.464493
35.80 193.419327
35.81 194.385254
35.82 197.287735
35.83 195.978714
35.84 197.598907
35.85 198.640182
35.86 197.195435
35.87 195.500519
35.88 197.107849
35.89 194.545212
35.90 194.498428
35.91 196.909531
35.92 198.678986
35.93 200.268143
35.94 199.628693
35.95 199.06131
35.96 196.919144
35.97 193.828247
35.98 193.507019
35.99 192.431793
36.00 191.617676
36.01 190.91391
36.02 192.194061
36.03 194.906082
36.04 192.108841
36.05 189.374664
36.06 189.200363
36.07 188.58403
36.08 186.908203
36.09 191.440842
36.10 194.275772
36.11 189.418335
36.12 185.018646
36.13 185.533142
36.14 186.971359
36.15 183.430847
36.16 180.88765
36.17 184.25061
36.18 188.85614
36.19 186.779922
36.20 186.206131
36.21 190.442307
36.22 190.523438
36.23 189.200089
36.24 189.234863
36.25 188.112045
36.26 184.186951
36.27 183.269836
36.28 183.206314
36.29 187.772095
36.30 190.641327
36.31 183.771057
36.32 184.359818
36.33 186.005569
36.34 185.830215
36.35 185.74559
36.36 186.709457
36.37 185.889328
36.38 183.312561
36.39 182.269638
36.40 185.848099
36.41 193.027466
36.42 196.609863
36.43 192.170395
36.44 185.224579
36.45 181.717911
36.46 180.695663
36.47 183.31131
36.48 185.459442
36.49 184.772858
36.50 184.354248
36.51 182.742126
36.52 181.103928
36.53 180.06192
36.54 183.533615
36.55 188.730072
36.56 187.687103
36.57 184.941238
36.58 185.60994
36.59 184.988129
36.60 180.400299
36.61 178.106125
36.62 182.348083
36.63 186.79213
36.64 186.21553
36.65 183.563049
36.66 179.614807
36.67 177.444092
36.68 182.091492
36.69 186.409378
36.70 186.342041
36.71 185.226624
36.72 180.165283
36.73 178.613449
36.74 182.826477
36.75 182.547577
36.76 181.464874
36.77 182.833878
36.78 180.690811
36.79 177.612946
36.80 175.869904
36.81 176.638306
36.82 177.512695
36.83 177.138596
36.84 176.957336
36.85 178.839615
36.86 178.528458
36.87 175.238617
36.88 172.577408
36.89 174.73291
36.90 178.681473
36.91 176.858902
36.92 174.804764
36.93 178.263138
36.94 180.716141
36.95 178.951218
36.96 178.857864
36.97 179.910843
36.98 180.276459
36.99 180.620758
37.00 177.540009
37.01 178.637924
37.02 182.898102
37.03 182.856689
37.04 174.195175
37.05 171.96727
37.06 175.808197
37.07 176.313843
37.08 172.998672
37.09 171.517883
37.10 170.711807
37.11 170.72316
37.12 172.234695
37.13 170.56958
37.14 170.350723
37.15 172.516586
37.16 172.064728
37.17 172.67215
37.18 174.44632
37.19 175.375092
37.20 175.084747
37.21 174.624161
37.22 172.557281
37.23 171.122513
37.24 174.103043
37.25 177.660416
37.26 177.518143
37.27 175.186386
37.28 172.132294
37.29 171.302094
37.30 175.437012
37.31 179.20668
37.32 182.724976
37.33 178.585968
37.34 173.904617
37.35 174.417267
37.36 171.344757
37.37 172.731979
37.38 173.595184
37.39 174.002151
37.40 175.27742
37.41 174.29277
37.42 171.7509
37.43 174.673355
37.44 175.543823
37.45 170.987457
37.46 167.56076
37.47 170.713638
37.48 173.256744
37.49 173.956741
37.50 174.734833
37.51 168.428177
37.52 165.509293
37.53 165.712738
37.54 166.927689
37.55 168.992432
37.56 170.174866
37.57 172.127106
37.58 170.565094
37.59 164.498184
37.60 166.190414
37.61 169.386459
37.62 172.144775
37.63 174.444565
37.64 171.272858
37.65 171.45401
37.66 168.624237
37.67 165.4048
37.68 167.140305
37.69 166.280106
37.70 164.93718
37.71 165.630554
37.72 168.218002
37.73 171.67659
37.74 172.401382
37.75 167.924866
37.76 166.046219
37.77 169.518356
37.78 174.373978
37.79 175.379883
37.80 171.585617
37.81 166.312057
37.82 167.333389
37.83 174.260315
37.84 175.148514
37.85 169.727203
37.86 168.373718
37.87 166.046097
37.88 166.232147
37.89 168.931046
37.90 167.922424
37.91 169.297302
37.92 169.636063
37.93 169.349106
37.94 168.479782
37.95 164.726532
37.96 165.299332
37.97 166.137146
37.98 163.209122
37.99 160.834351
38.00 165.981049
38.01 169.198227
38.02 167.814011
38.03 166.139236
38.04 165.571991
38.05 169.479355
38.06 174.734619
38.07 172.9953
38.08 165.861465
38.09 164.801773
38.10 166.013702
38.11 168.341553
38.12 170.511002
38.13 167.675049
38.14 166.4758
38.15 167.758545
38.16 172.128922
38.17 171.947479
38.18 168.386276
38.19 169.598587
38.20 169.783432
38.21 166.914963
38.22 169.104218
38.23 173.656784
38.24 168.673737
38.25 163.600494
38.26 162.103424
38.27 160.724945
38.28 164.457001
38.29 167.610825
38.30 166.805191
38.31 166.67067
38.32 169.355408
38.33 170.32785
38.34 170.837479
38.35 171.008881
38.36 170.055191
38.37 170.488678
38.38 167.471375
38.39 166.218201
38.40 170.900314
38.41 171.352203
38.42 166.988907
38.43 168.305176
38.44 169.559418
38.45 168.104263
38.46 168.423004
38.47 167.942856
38.48 167.394379
38.49 166.574249
38.50 166.660522
38.51 167.425644
38.52 166.25267
38.53 167.486923
38.54 166.52623
38.55 166.621429
38.56 169.408493
38.57 167.45282
38.58 167.275116
38.59 168.343796
38.60 168.007019
38.61 165.857925
38.62 164.822495
38.63 165.463242
38.64 165.719818
38.65 168.966965
38.66 171.470016
38.67 168.183975
38.68 164.294113
38.69 164.960159
38.70 162.605927
38.71 162.394791
38.72 164.640762
38.73 164.636353
38.74 164.333572
38.75 163.230026
38.76 161.311096
38.77 159.645081
38.78 161.708313
38.79 163.790283
38.80 165.010681
38.81 165.562546
38.82 164.19873
38.83 163.131531
38.84 156.557007
38.85 154.349045
38.86 160.418121
38.87 161.108322
38.88 160.693405
38.89 163.397217
38.90 165.2668
38.91 163.924667
38.92 161.149521
38.93 160.971405
38.94 158.848434
38.95 155.450821
38.96 156.526138
38.97 157.585541
38.98 157.282837
38.99 161.346466
39.00 161.632477
39.01 159.592606
39.02 156.289261
39.03 155.654114
39.04 155.596939
39.05 156.277878
39.06 157.505783
39.07 154.272354
39.08 153.212616
39.09 153.493729
39.10 153.090378
39.11 154.391739
39.12 160.17749
39.13 165.987778
39.14 167.499802
39.15 167.034134
39.16 165.682129
39.17 162.608734
39.18 159.244858
39.19 158.295685
39.20 154.187164
39.21 151.949646
39.22 154.400284
39.23 153.971146
39.24 154.626022
39.25 159.611572
39.26 160.771332
39.27 158.943848
39.28 156.922195
39.29 161.114441
39.30 165.288055
39.31 164.198227
39.32 164.038528
39.33 158.639786
39.34 155.876831
39.35 154.105453
39.36 154.351959
39.37 157.687378
39.38 155.613968
39.39 156.915695
39.40 161.511093
39.41 160.702957
39.42 154.638153
39.43 152.538208
39.44 152.41243
39.45 150.871277
39.46 153.347015
39.47 155.39003
39.48 152.192596
39.49 154.914291
39.50 158.199219
39.51 156.613602
39.52 155.487366
39.53 151.729279
39.54 146.784027
39.55 147.657944
39.56 150.565781
39.57 155.711304
39.58 159.719147
39.59 157.706329
39.60 156.727936
39.61 155.119354
39.62 153.932632
39.63 151.553848
39.64 154.638184
39.65 155.618011
39.66 152.791702
39.67 153.68924
39.68 150.031509
39.69 150.625
39.70 155.320389
39.71 157.832809
39.72 156.751923
39.73 154.378342
39.74 156.408707
39.75 156.877518
39.76 154.204575
39.77 151.96312
39.78 155.176773
39.79 158.538101
39.80 157.712341
39.81 155.078049
39.82 153.573181
39.83 154.995667
39.84 155.682449
39.85 154.400391
39.86 152.233932
39.87 156.698395
39.88 158.916763
39.89 156.926483
39.90 156.842422
39.91 156.843445
39.92 158.095932
39.93 157.429352
39.94 157.647446
39.95 159.316391
39.96 161.697296
39.97 160.19519
39.98 157.640182
39.99 156.163116
40.00 155.158264
40.01 159.511353
40.02 159.938385
40.03 156.022293
40.04 155.210388
40.05 159.884537
40.06 158.865936
40.07 153.005295
40.08 153.421509
40.09 156.920868
40.10 160.026398
40.11 163.352798
40.12 159.708023
40.13 154.623566
40.14 156.187241
40.15 156.998779
40.16 157.936005
40.17 158.759048
40.18 159.281586
40.19 159.318588
40.20 157.005753
40.21 154.919968
40.22 154.138275
40.23 156.534668
40.24 159.304321
40.25 156.497299
40.26 153.306213
40.27 156.326569
40.28 155.031052
40.29 154.055099
40.30 154.373245
40.31 156.571732
40.32 157.896576
40.33 156.638412
40.34 155.864502
40.35 156.81282
40.36 157.405685
40.37 154.788727
40.38 149.878571
40.39 150.093567
40.40 155.355286
40.41 161.547012
40.42 163.425674
40.43 161.704269
40.44 161.447708
40.45 161.279068
40.46 160.239639
40.47 157.215088
40.48 156.030579
40.49 156.318466
40.50 159.164795
40.51 161.44696
40.52 161.740906
40.53 161.551361
40.54 157.52272
40.55 154.205841
40.56 155.049789
40.57 160.02626
40.58 162.202927
40.59 159.81282
40.60 156.91214
40.61 152.12114
40.62 151.464035
40.63 154.715134
40.64 156.215805
40.65 157.04213
40.66 157.58519
40.67 154.715118
40.68 152.315552
40.69 154.466782
40.70 155.892487
40.71 154.911026
40.72 157.159866
40.73 162.063354
40.74 162.221771
40.75 157.396835
40.76 157.09314
40.77 158.174469
40.78 156.045776
40.79 157.81041
40.80 160.253601
40.81 157.893997
40.82 156.602097
40.83 155.452194
40.84 156.29306
40.85 156.072571
40.86 152.009171
40.87 152.279587
40.88 154.229752
40.89 153.210693
40.90 154.009796
40.91 152.891388
40.92 150.415039
40.93 149.440277
40.94 152.41449
40.95 155.480164
40.96 159.02446
40.97 157.737564
40.98 155.39447
40.99 158.216873
41.00 157.974213
41.01 154.883896
41.02 152.717621
41.03 152.552994
41.04 153.914047
41.05 154.762543
41.06 152.846146
41.07 155.60257
41.08 155.386505
41.09 154.068405
41.10 155.064972
