!@!!GADDS PLOTSO FILE: Chi integration type
!@!!Title/SampleName: ML_MAPbX3
!@!!User: NREL
!@!!Site: NREL SERF C211; SN 2510
!@!!Frame: 081022_MLProject_000_019.gfrm
!@!!Wavelengths    1.54184   1.54056   1.54439
!@!!Frame angles: 2Theta: 28.000 Omega: 5.000 Phi: 0.000 Chi: 90.000
!@!!Integration range: 2Theta: 10.000 to 41.100  Gamma: -120.400 to -60.400
!@!!Integration method: bin normalized
!@!N
!@!SS
!@!M
!@!L 0.0 0.0 0.0 0.0
!@!XDegrees
!@!YCounts
10.00 192.204437
10.01 195.771637
10.02 192.384018
10.03 180.254715
10.04 182.61084
10.05 187.694717
10.06 184.899933
10.07 188.370712
10.08 189.923111
10.09 181.702988
10.10 180.346436
10.11 189.271698
10.12 193.760818
10.13 197.619324
10.14 203.076904
10.15 203.175201
10.16 197.236099
10.17 189.57814
10.18 189.713623
10.19 192.421097
10.20 201.51564
10.21 211.268005
10.22 206.420303
10.23 196.82724
10.24 195.032074
10.25 195.739716
10.26 193.661179
10.27 199.567978
10.28 198.052505
10.29 192.889496
10.30 197.240387
10.31 197.638763
10.32 199.722275
10.33 207.653976
10.34 205.986267
10.35 197.803101
10.36 195.253235
10.37 192.227753
10.38 192.35025
10.39 196.303268
10.40 193.985733
10.41 192.309158
10.42 188.213837
10.43 188.371658
10.44 194.934433
10.45 205.809982
10.46 212.200363
10.47 216.632965
10.48 215.177704
10.49 213.599915
10.50 217.413742
10.51 208.126999
10.52 199.088028
10.53 197.675613
10.54 189.401718
10.55 186.903503
10.56 190.43129
10.57 186.674164
10.58 189.380127
10.59 193.534897
10.60 189.988113
10.61 184.580276
10.62 191.560287
10.63 200.466232
10.64 200.710678
10.65 201.603607
10.66 196.548141
10.67 195.162643
10.68 200.292801
10.69 203.541977
10.70 205.505981
10.71 210.43277
10.72 216.764328
10.73 214.311386
10.74 212.044907
10.75 201.070267
10.76 188.062653
10.77 187.433517
10.78 188.057922
10.79 191.93428
10.80 193.036102
10.81 200.751205
10.82 206.852509
10.83 214.992966
10.84 223.290176
10.85 219.048721
10.86 217.102905
10.87 218.580338
10.88 222.671692
10.89 214.569901
10.90 207.31395
10.91 207.90892
10.92 204.65451
10.93 208.170425
10.94 209.890091
10.95 206.419968
10.96 208.541245
10.97 209.12645
10.98 202.686569
10.99 203.808914
11.00 209.659607
11.01 208.268692
11.02 207.595337
11.03 208.055298
11.04 202.639542
11.05 204.595016
11.06 209.265442
11.07 209.693924
11.08 215.139313
11.09 218.662064
11.10 221.635406
11.11 221.16507
11.12 215.84465
11.13 211.648529
11.14 211.939651
11.15 213.54895
11.16 218.80043
11.17 226.384033
11.18 223.851822
11.19 222.302368
11.20 221.377213
11.21 215.993851
11.22 215.918457
11.23 214.889771
11.24 212.192215
11.25 212.183685
11.26 220.517609
11.27 219.347351
11.28 209.7733
11.29 216.53894
11.30 222.582062
11.31 218.093567
11.32 212.55603
11.33 209.858932
11.34 214.249084
11.35 216.386551
11.36 221.650513
11.37 221.857025
11.38 215.200836
11.39 212.260696
11.40 215.662064
11.41 227.089478
11.42 232.472626
11.43 225.797043
11.44 214.294617
11.45 217.423813
11.46 218.597488
11.47 214.322174
11.48 214.823166
11.49 220.294128
11.50 220.675476
11.51 222.52626
11.52 229.405396
11.53 226.306091
11.54 226.569199
11.55 226.966278
11.56 214.860947
11.57 208.563385
11.58 210.579514
11.59 214.94371
11.60 224.310898
11.61 230.924789
11.62 226.786285
11.63 228.05983
11.64 230.762375
11.65 232.01268
11.66 231.985138
11.67 231.624802
11.68 235.452942
11.69 231.888382
11.70 231.408859
11.71 228.454361
11.72 225.643219
11.73 233.297867
11.74 243.328568
11.75 248.733688
11.76 241.374344
11.77 234.777588
11.78 230.52095
11.79 227.034531
11.80 222.739166
11.81 224.179214
11.82 234.708542
11.83 234.705948
11.84 225.71521
11.85 219.159409
11.86 214.461899
11.87 213.871811
11.88 223.045013
11.89 227.950821
11.90 232.558426
11.91 233.641602
11.92 235.403229
11.93 240.673569
11.94 236.569977
11.95 234.540466
11.96 233.286713
11.97 231.744659
11.98 233.07164
11.99 235.820679
12.00 245.924255
12.01 246.621658
12.02 247.121536
12.03 242.918823
12.04 231.753159
12.05 231.463058
12.06 231.588074
12.07 233.15477
12.08 235.504013
12.09 234.398056
12.10 234.639694
12.11 232.891281
12.12 232.763458
12.13 239.416199
12.14 240.617432
12.15 236.284805
12.16 240.099106
12.17 241.021042
12.18 239.481522
12.19 239.552368
12.20 243.084351
12.21 244.422073
12.22 247.507797
12.23 249.859741
12.24 248.983017
12.25 252.800217
12.26 253.193588
12.27 251.471039
12.28 250.851517
12.29 250.74321
12.30 251.393402
12.31 254.600006
12.32 259.60968
12.33 257.660492
12.34 255.203018
12.35 258.489014
12.36 256.499634
12.37 253.831589
12.38 257.164276
12.39 260.887665
12.40 260.696411
12.41 256.709412
12.42 253.954376
12.43 255.563293
12.44 259.42041
12.45 262.987305
12.46 263.943542
12.47 264.27121
12.48 268.032227
12.49 268.407074
12.50 275.173248
12.51 275.442078
12.52 268.119415
12.53 265.542114
12.54 260.986938
12.55 260.005981
12.56 262.781433
12.57 263.388458
12.58 260.457092
12.59 257.667755
12.60 265.481262
12.61 269.531799
12.62 269.179474
12.63 273.379395
12.64 275.888763
12.65 272.081329
12.66 263.303162
12.67 257.647217
12.68 259.366638
12.69 258.743866
12.70 261.932892
12.71 267.507385
12.72 266.475586
12.73 258.675781
12.74 256.147583
12.75 254.773758
12.76 256.089569
12.77 266.546295
12.78 270.664642
12.79 261.959717
12.80 264.975708
12.81 271.982117
12.82 279.871002
12.83 284.335266
12.84 279.313843
12.85 270.559814
12.86 269.622162
12.87 277.270538
12.88 276.11557
12.89 268.796875
12.90 265.929352
12.91 269.386261
12.92 272.096039
12.93 278.166626
12.94 280.992096
12.95 279.275665
12.96 281.383942
12.97 276.121796
12.98 273.159546
12.99 273.41507
13.00 273.714966
13.01 270.961121
13.02 274.981171
13.03 277.467743
13.04 274.892822
13.05 280.614014
13.06 276.858856
13.07 270.199371
13.08 273.015167
13.09 272.101929
13.10 269.889557
13.11 272.167999
13.12 272.18985
13.13 268.382233
13.14 259.834839
13.15 265.268158
13.16 269.845734
13.17 262.479065
13.18 267.607727
13.19 275.891815
13.20 280.77002
13.21 279.211578
13.22 275.03833
13.23 275.33432
13.24 271.862488
13.25 267.123138
13.26 269.710846
13.27 278.533051
13.28 281.497101
13.29 280.032837
13.30 280.635284
13.31 286.098663
13.32 289.848938
13.33 291.682068
13.34 290.111267
13.35 286.636566
13.36 282.0961
13.37 283.404968
13.38 286.461792
13.39 281.078766
13.40 278.467316
13.41 283.71344
13.42 282.26593
13.43 282.467407
13.44 275.335754
13.45 274.006104
13.46 284.958282
13.47 285.704956
13.48 279.794586
13.49 278.234253
13.50 285.004456
13.51 279.310455
13.52 277.151337
13.53 280.15564
13.54 270.889832
13.55 268.603912
13.56 273.277679
13.57 278.474335
13.58 283.197083
13.59 278.890625
13.60 275.629608
13.61 275.556213
13.62 277.713043
13.63 281.385223
13.64 282.916382
13.65 283.120087
13.66 278.702209
13.67 283.208282
13.68 282.016113
13.69 277.988586
13.70 283.872375
13.71 291.863464
13.72 293.735657
13.73 291.877838
13.74 291.956818
13.75 286.061829
13.76 280.230042
13.77 281.558289
13.78 286.481537
13.79 289.295288
13.80 292.270264
13.81 293.566559
13.82 288.910797
13.83 283.421265
13.84 278.910675
13.85 272.072144
13.86 270.364685
13.87 278.203583
13.88 282.791138
13.89 288.960327
13.90 292.026794
13.91 292.379303
13.92 297.74881
13.93 301.714874
13.94 295.20636
13.95 286.528198
13.96 278.16275
13.97 279.023468
13.98 282.689453
13.99 283.507751
14.00 281.434235
14.01 279.806671
14.02 283.468597
14.03 284.474365
14.04 285.774292
14.05 290.031097
14.06 288.610901
14.07 292.594666
14.08 293.694214
14.09 282.635803
14.10 277.68869
14.11 274.317963
14.12 272.047577
14.13 276.876678
14.14 285.314606
14.15 293.083466
14.16 299.787689
14.17 298.184601
14.18 296.552338
14.19 296.364502
14.20 286.720276
14.21 288.204926
14.22 290.256378
14.23 278.346619
14.24 279.592072
14.25 293.585846
14.26 298.77063
14.27 299.155334
14.28 299.160095
14.29 292.602692
14.30 282.900452
14.31 277.360626
14.32 280.077637
14.33 286.422882
14.34 294.170685
14.35 298.238953
14.36 297.913849
14.37 294.362915
14.38 292.413605
14.39 299.333466
14.40 305.476959
14.41 302.457275
14.42 298.652924
14.43 300.828156
14.44 302.978943
14.45 298.773682
14.46 298.036438
14.47 306.792938
14.48 308.619019
14.49 311.50769
14.50 308.574005
14.51 304.71524
14.52 301.556183
14.53 294.009125
14.54 296.246674
14.55 301.958252
14.56 307.725922
14.57 310.082825
14.58 303.06311
14.59 304.441437
14.60 306.843201
14.61 303.671021
14.62 304.490448
14.63 312.591766
14.64 318.032013
14.65 322.758972
14.66 319.222717
14.67 310.35202
14.68 318.199432
14.69 323.426117
14.70 321.352386
14.71 324.844849
14.72 333.113342
14.73 332.381287
14.74 327.987549
14.75 330.929596
14.76 339.345215
14.77 338.350464
14.78 336.467194
14.79 336.973969
14.80 335.671783
14.81 338.219482
14.82 341.922241
14.83 348.588348
14.84 360.915588
14.85 378.18576
14.86 378.55069
14.87 382.65979
14.88 384.352509
14.89 391.160553
14.90 389.703125
14.91 392.225586
14.92 393.918671
14.93 396.932281
14.94 409.522339
14.95 406.799011
14.96 396.642548
14.97 403.270233
14.98 420.716797
14.99 435.420807
15.00 442.889069
15.01 442.243713
15.02 458.008118
15.03 467.097137
15.04 475.106567
15.05 483.538055
15.06 499.575928
15.07 506.479828
15.08 514.879333
15.09 520.699036
15.10 530.243896
15.11 548.343201
15.12 564.862976
15.13 579.240356
15.14 581.881287
15.15 602.706726
15.16 624.144836
15.17 653.730896
15.18 671.223633
15.19 690.15564
15.20 689.800232
15.21 703.574768
15.22 710.570496
15.23 737.900085
15.24 764.292664
15.25 802.405762
15.26 837.980713
15.27 850.965515
15.28 861.194519
15.29 873.117676
15.30 881.248108
15.31 893.798645
15.32 921.642761
15.33 932.986572
15.34 948.755493
15.35 957.362793
15.36 975.040344
15.37 977.614258
15.38 982.940613
15.39 985.309143
15.40 996.878235
15.41 992.557007
15.42 972.721191
15.43 964.762573
15.44 943.939941
15.45 921.583008
15.46 916.520874
15.47 884.485474
15.48 863.550171
15.49 855.333252
15.50 846.217407
15.51 799.59729
15.52 787.251526
15.53 758.520325
15.54 729.70343
15.55 707.60968
15.56 699.745178
15.57 668.300354
15.58 641.825134
15.59 612.937561
15.60 589.560364
15.61 579.973389
15.62 560.222229
15.63 542.325562
15.64 526.161194
15.65 519.3396
15.66 509.672302
15.67 501.659851
15.68 485.812683
15.69 479.311035
15.70 468.522949
15.71 461.832672
15.72 450.243927
15.73 448.413666
15.74 441.88385
15.75 432.21817
15.76 425.501587
15.77 418.737885
15.78 417.783203
15.79 422.88797
15.80 426.623077
15.81 427.462921
15.82 426.034241
15.83 421.586975
15.84 417.982635
15.85 409.613953
15.86 406.22464
15.87 399.798309
15.88 392.899353
15.89 391.343964
15.90 394.695892
15.91 395.172119
15.92 389.966644
15.93 391.270966
15.94 389.632965
15.95 386.893066
15.96 382.777161
15.97 381.065674
15.98 380.941986
15.99 378.900879
16.00 377.680542
16.01 378.681366
16.02 374.161682
16.03 369.947754
16.04 368.396637
16.05 365.98407
16.06 364.211609
16.07 369.230713
16.08 370.989166
16.09 360.420837
16.10 358.687134
16.11 359.334106
16.12 352.962524
16.13 355.702728
16.14 361.850586
16.15 358.896301
16.16 351.509888
16.17 348.359467
16.18 353.787659
16.19 356.420166
16.20 352.938232
16.21 352.69223
16.22 351.578949
16.23 345.825409
16.24 343.686218
16.25 346.777527
16.26 348.834442
16.27 347.979034
16.28 346.076599
16.29 340.081055
16.30 337.402008
16.31 338.088257
16.32 333.474762
16.33 330.046265
16.34 330.047577
16.35 331.379089
16.36 332.621765
16.37 327.505615
16.38 326.422058
16.39 329.728607
16.40 328.155029
16.41 325.89447
16.42 325.792419
16.43 332.790527
16.44 338.294342
16.45 343.481567
16.46 337.310394
16.47 329.361359
16.48 331.667328
16.49 330.538177
16.50 330.861572
16.51 335.45343
16.52 341.5979
16.53 348.074799
16.54 351.509186
16.55 346.49704
16.56 342.047821
16.57 334.50293
16.58 339.076843
16.59 342.51001
16.60 340.447021
16.61 339.423157
16.62 335.031128
16.63 335.004059
16.64 339.281342
16.65 333.361023
16.66 335.037994
16.67 337.603424
16.68 332.454956
16.69 331.274445
16.70 335.057434
16.71 338.549255
16.72 338.014252
16.73 336.295685
16.74 336.335876
16.75 336.416901
16.76 347.221832
16.77 344.946777
16.78 334.41275
16.79 337.201508
16.80 330.024078
16.81 325.983368
16.82 326.367798
16.83 325.031372
16.84 328.844238
16.85 339.058319
16.86 351.834473
16.87 349.407043
16.88 336.210907
16.89 336.07428
16.90 333.970123
16.91 333.44574
16.92 334.76062
16.93 336.939148
16.94 336.168915
16.95 328.760345
16.96 325.419617
16.97 332.685181
16.98 340.204163
16.99 347.344055
17.00 345.195038
17.01 337.976318
17.02 339.391785
17.03 344.373627
17.04 345.189331
17.05 342.740784
17.06 343.386414
17.07 337.464661
17.08 337.03241
17.09 343.852478
17.10 342.995422
17.11 343.730347
17.12 347.781311
17.13 352.288757
17.14 360.429169
17.15 356.62738
17.16 348.276733
17.17 349.284821
17.18 348.663788
17.19 354.379364
17.20 359.20752
17.21 353.548401
17.22 344.215424
17.23 337.580444
17.24 330.469452
17.25 328.319122
17.26 334.027405
17.27 337.631653
17.28 339.288361
17.29 342.058624
17.30 344.98526
17.31 342.342072
17.32 346.976501
17.33 347.688904
17.34 348.512787
17.35 356.286865
17.36 357.335358
17.37 349.399261
17.38 344.746063
17.39 344.523712
17.40 347.957092
17.41 349.611298
17.42 347.201721
17.43 349.341064
17.44 349.665558
17.45 352.055725
17.46 354.351196
17.47 354.065399
17.48 358.08902
17.49 358.289307
17.50 359.36499
17.51 367.315338
17.52 365.432709
17.53 358.989594
17.54 359.49231
17.55 354.704834
17.56 353.459229
17.57 357.577606
17.58 359.261719
17.59 361.247833
17.60 365.580353
17.61 370.88504
17.62 372.329254
17.63 365.669495
17.64 366.104095
17.65 367.328491
17.66 364.976379
17.67 365.777588
17.68 359.482941
17.69 359.809631
17.70 366.257904
17.71 364.523956
17.72 360.30011
17.73 361.591309
17.74 366.618805
17.75 363.093597
17.76 359.597931
17.77 367.840546
17.78 368.792145
17.79 363.459106
17.80 365.529785
17.81 358.036133
17.82 353.268372
17.83 356.414948
17.84 359.119629
17.85 366.164276
17.86 370.321564
17.87 367.369781
17.88 371.367889
17.89 374.688599
17.90 368.531982
17.91 368.603638
17.92 370.35202
17.93 374.04541
17.94 380.601288
17.95 378.416473
17.96 376.718445
17.97 378.635254
17.98 372.819366
17.99 372.924957
18.00 375.538666
18.01 371.947815
18.02 368.918365
18.03 370.635925
18.04 370.203705
18.05 372.236877
18.06 374.816162
18.07 375.294342
18.08 377.805725
18.09 381.451599
18.10 380.475037
18.11 378.331726
18.12 379.322632
18.13 374.708923
18.14 371.183044
18.15 372.166565
18.16 369.762665
18.17 370.720673
18.18 370.05722
18.19 374.377594
18.20 385.711182
18.21 392.322266
18.22 392.912842
18.23 390.534973
18.24 390.346741
18.25 388.668091
18.26 385.693237
18.27 380.503662
18.28 379.055878
18.29 383.752075
18.30 381.514984
18.31 378.795807
18.32 375.521942
18.33 376.410583
18.34 388.614471
18.35 391.712891
18.36 384.152954
18.37 388.739838
18.38 390.320526
18.39 384.062195
18.40 376.682556
18.41 379.413971
18.42 380.738953
18.43 377.889862
18.44 380.121796
18.45 379.349884
18.46 382.68103
18.47 381.938049
18.48 381.113312
18.49 380.725922
18.50 382.295715
18.51 384.361725
18.52 388.880859
18.53 389.000153
18.54 392.402893
18.55 402.666107
18.56 403.263855
18.57 401.626648
18.58 399.831818
18.59 399.788269
18.60 394.274384
18.61 391.531891
18.62 390.272919
18.63 387.35144
18.64 391.431641
18.65 387.140503
18.66 384.830139
18.67 400.637421
18.68 404.460327
18.69 398.748047
18.70 405.913544
18.71 410.402435
18.72 407.338867
18.73 407.999969
18.74 405.207764
18.75 397.669739
18.76 391.797272
18.77 385.32431
18.78 379.06308
18.79 388.501801
18.80 396.920197
18.81 402.96991
18.82 411.607574
18.83 409.199799
18.84 401.301849
18.85 405.543701
18.86 407.283173
18.87 408.289398
18.88 409.017273
18.89 403.97876
18.90 409.442688
18.91 407.703339
18.92 399.361023
18.93 397.357544
18.94 400.108276
18.95 402.854401
18.96 402.217896
18.97 408.09201
18.98 415.277405
18.99 415.389832
19.00 415.256073
19.01 412.605011
19.02 404.199768
19.03 398.736572
19.04 397.426697
19.05 401.114288
19.06 402.867523
19.07 404.174255
19.08 403.611816
19.09 403.229034
19.10 406.905701
19.11 414.201752
19.12 420.551514
19.13 418.169647
19.14 412.594971
19.15 414.531891
19.16 423.929474
19.17 423.797424
19.18 430.690125
19.19 426.79715
19.20 418.743622
19.21 416.343964
19.22 420.992157
19.23 420.823822
19.24 416.724487
19.25 422.365509
19.26 427.637451
19.27 427.773376
19.28 431.64035
19.29 437.690399
19.30 432.252441
19.31 426.434692
19.32 423.174652
19.33 424.994507
19.34 427.314728
19.35 422.414703
19.36 422.137665
19.37 422.649536
19.38 430.240662
19.39 437.272461
19.40 437.169922
19.41 438.825653
19.42 432.925446
19.43 424.319916
19.44 423.945374
19.45 426.432739
19.46 431.241394
19.47 433.397491
19.48 427.954224
19.49 429.791779
19.50 433.127228
19.51 435.596313
19.52 436.093506
19.53 443.970825
19.54 450.396698
19.55 445.990417
19.56 445.355804
19.57 438.089996
19.58 433.515015
19.59 446.522919
19.60 444.714661
19.61 437.192841
19.62 437.470581
19.63 437.785156
19.64 438.065796
19.65 434.873535
19.66 442.395142
19.67 444.979797
19.68 437.397217
19.69 440.113892
19.70 439.958099
19.71 436.051636
19.72 436.957275
19.73 441.898651
19.74 448.218292
19.75 448.638031
19.76 448.390228
19.77 447.827362
19.78 449.430573
19.79 449.587524
19.80 450.524994
19.81 449.133911
19.82 446.964722
19.83 442.974487
19.84 444.895905
19.85 454.889435
19.86 462.873688
19.87 463.367126
19.88 466.843719
19.89 466.042267
19.90 465.678101
19.91 462.284729
19.92 464.424469
19.93 464.446075
19.94 456.900208
19.95 458.972229
19.96 460.852234
19.97 469.505005
19.98 479.685425
19.99 470.202026
20.00 460.578308
20.01 464.113861
20.02 468.482666
20.03 460.248566
20.04 454.343628
20.05 458.665314
20.06 463.695526
20.07 470.471954
20.08 471.783905
20.09 469.435425
20.10 471.358154
20.11 475.824646
20.12 477.006348
20.13 477.233124
20.14 477.321564
20.15 476.731201
20.16 478.788361
20.17 477.748596
20.18 474.261719
20.19 475.220551
20.20 479.319702
20.21 480.956055
20.22 478.170074
20.23 475.704651
20.24 477.357025
20.25 482.513824
20.26 490.322113
20.27 498.015625
20.28 488.337769
20.29 475.75943
20.30 469.749115
20.31 464.966736
20.32 469.224152
20.33 473.069946
20.34 472.621643
20.35 475.894714
20.36 478.188629
20.37 480.122742
20.38 486.325378
20.39 490.027649
20.40 481.783691
20.41 480.57428
20.42 488.850952
20.43 488.437927
20.44 480.276672
20.45 476.356689
20.46 476.683929
20.47 478.35321
20.48 485.440948
20.49 487.676971
20.50 486.956238
20.51 483.925201
20.52 482.440582
20.53 490.608246
20.54 492.639221
20.55 486.555573
20.56 482.219421
20.57 480.797211
20.58 487.634338
20.59 490.901062
20.60 490.747711
20.61 490.655396
20.62 492.772583
20.63 493.372711
20.64 492.838165
20.65 490.772919
20.66 486.004486
20.67 483.251129
20.68 488.922729
20.69 495.453796
20.70 495.73996
20.71 498.267883
20.72 502.58316
20.73 497.316925
20.74 495.659576
20.75 498.222137
20.76 494.169891
20.77 495.66864
20.78 499.707489
20.79 503.672577
20.80 505.425018
20.81 511.201874
20.82 514.000366
20.83 514.40741
20.84 521.083008
20.85 521.508118
20.86 520.272827
20.87 512.59021
20.88 496.402374
20.89 489.987274
20.90 488.911377
20.91 493.195984
20.92 509.266632
20.93 512.328064
20.94 514.085022
20.95 516.960571
20.96 513.0495
20.97 516.488464
20.98 515.598877
20.99 515.460693
21.00 522.498169
21.01 525.33252
21.02 521.967407
21.03 521.819885
21.04 523.764282
21.05 524.283752
21.06 521.991089
21.07 519.164063
21.08 511.634308
21.09 514.099976
21.10 518.705688
21.11 524.072937
21.12 522.880676
21.13 520.177002
21.14 521.504456
21.15 514.094543
21.16 513.333313
21.17 520.204468
21.18 519.956299
21.19 523.886597
21.20 527.518494
21.21 522.291809
21.22 521.160706
21.23 536.788635
21.24 541.845276
21.25 531.322815
21.26 527.701599
21.27 530.673828
21.28 531.276062
21.29 536.318481
21.30 540.804565
21.31 537.781433
21.32 534.695496
21.33 532.171204
21.34 529.027893
21.35 531.215088
21.36 534.496155
21.37 538.051331
21.38 544.725159
21.39 545.756104
21.40 538.741577
21.41 532.224243
21.42 528.896057
21.43 533.892151
21.44 536.918457
21.45 546.25592
21.46 556.274353
21.47 554.067566
21.48 552.23053
21.49 548.59259
21.50 548.971008
21.51 554.280762
21.52 564.480347
21.53 563.455261
21.54 558.863953
21.55 557.256775
21.56 555.379272
21.57 562.127197
21.58 567.687622
21.59 569.387207
21.60 571.245178
21.61 573.139465
21.62 572.862549
21.63 581.285645
21.64 591.291321
21.65 585.642273
21.66 583.206482
21.67 578.609253
21.68 572.558044
21.69 569.095276
21.70 571.649109
21.71 574.669678
21.72 582.490662
21.73 584.587036
21.74 586.138367
21.75 587.908447
21.76 577.95697
21.77 576.271912
21.78 584.273621
21.79 584.577637
21.80 589.602539
21.81 592.848633
21.82 585.518127
21.83 583.796753
21.84 588.891235
21.85 589.186768
21.86 599.072693
21.87 600.746521
21.88 595.368652
21.89 588.786987
21.90 584.379639
21.91 581.430847
21.92 580.434204
21.93 576.787292
21.94 575.335083
21.95 578.369141
21.96 578.258118
21.97 583.26416
21.98 587.388245
21.99 583.646729
22.00 581.316284
22.01 586.003601
22.02 588.192932
22.03 583.954956
22.04 579.442871
22.05 581.27887
22.06 580.300049
22.07 589.416565
22.08 596.644592
22.09 600.519104
22.10 591.948364
22.11 574.018311
22.12 563.401489
22.13 560.349854
22.14 559.866882
22.15 564.544861
22.16 566.350037
22.17 566.874268
22.18 567.507141
22.19 567.65509
22.20 572.162537
22.21 574.854248
22.22 575.283752
22.23 574.476563
22.24 573.630432
22.25 576.768677
22.26 579.768311
22.27 579.362305
22.28 576.488525
22.29 579.677551
22.30 583.995361
22.31 581.505798
22.32 575.984009
22.33 571.641052
22.34 566.78241
22.35 570.125916
22.36 569.374756
22.37 570.477722
22.38 572.138245
22.39 567.195313
22.40 573.715698
22.41 580.382996
22.42 579.121155
22.43 570.532532
22.44 571.939575
22.45 578.148743
22.46 577.328857
22.47 575.320862
22.48 575.043579
22.49 572.177429
22.50 570.122986
22.51 573.208679
22.52 582.016541
22.53 585.243103
22.54 584.48175
22.55 589.311462
22.56 597.907959
22.57 597.501892
22.58 593.625244
22.59 592.954041
22.60 582.974731
22.61 582.609863
22.62 587.920349
22.63 588.774963
22.64 581.852234
22.65 581.100342
22.66 581.263
22.67 585.781982
22.68 593.409485
22.69 598.537537
22.70 596.732361
22.71 590.439392
22.72 593.383911
22.73 598.075928
22.74 593.717346
22.75 586.548401
22.76 579.521423
22.77 582.870422
22.78 583.02124
22.79 579.750549
22.80 582.412476
22.81 585.163452
22.82 592.449341
22.83 606.129517
22.84 607.866882
22.85 608.932861
22.86 607.566101
22.87 603.250244
22.88 598.115173
22.89 596.474121
22.90 594.966553
22.91 587.935242
22.92 586.831909
22.93 593.19989
22.94 594.114075
22.95 595.15918
22.96 596.122009
22.97 593.562927
22.98 596.868164
22.99 601.300537
23.00 605.984802
23.01 603.552002
23.02 602.77179
23.03 600.000305
23.04 598.318909
23.05 602.690247
23.06 602.074524
23.07 597.890442
23.08 606.838928
23.09 614.743835
23.10 607.947693
23.11 603.760986
23.12 606.298462
23.13 612.608826
23.14 611.91864
23.15 608.605408
23.16 608.575684
23.17 603.878174
23.18 600.139282
23.19 600.431824
23.20 598.829163
23.21 593.064697
23.22 592.276001
23.23 601.080811
23.24 606.76709
23.25 613.713379
23.26 620.147766
23.27 618.06311
23.28 614.939453
23.29 614.571899
23.30 611.809326
23.31 612.212585
23.32 613.699707
23.33 608.617981
23.34 601.137329
23.35 607.020264
23.36 609.43927
23.37 603.692383
23.38 596.700867
23.39 597.064026
23.40 602.508667
23.41 606.765869
23.42 601.934204
23.43 600.420654
23.44 606.542542
23.45 612.137695
23.46 607.22699
23.47 607.919983
23.48 613.359253
23.49 615.245544
23.50 609.743469
23.51 602.910889
23.52 603.00116
23.53 610.077454
23.54 612.073914
23.55 609.061584
23.56 612.295349
23.57 613.179016
23.58 607.508667
23.59 605.240662
23.60 615.594604
23.61 624.465515
23.62 620.806396
23.63 612.770264
23.64 605.584839
23.65 608.265442
23.66 617.230164
23.67 616.912354
23.68 611.416809
23.69 613.976868
23.70 624.011719
23.71 617.740295
23.72 608.147644
23.73 604.57196
23.74 604.784973
23.75 605.485046
23.76 607.517456
23.77 617.941772
23.78 629.249207
23.79 630.915344
23.80 623.789063
23.81 612.920166
23.82 607.477295
23.83 611.045959
23.84 619.475708
23.85 622.461243
23.86 625.72168
23.87 630.305725
23.88 636.329773
23.89 636.437134
23.90 637.838623
23.91 627.946228
23.92 620.442078
23.93 630.03949
23.94 634.988525
23.95 635.332092
23.96 626.533875
23.97 616.838135
23.98 606.647949
23.99 605.678406
24.00 619.029663
24.01 625.393494
24.02 631.807373
24.03 637.9505
24.04 635.375305
24.05 632.894531
24.06 627.146423
24.07 621.906799
24.08 624.572937
24.09 629.11908
24.10 628.6521
24.11 626.160889
24.12 619.33197
24.13 615.867188
24.14 624.305298
24.15 623.31134
24.16 615.117493
24.17 624.349243
24.18 625.551086
24.19 617.492432
24.20 612.504822
24.21 604.019287
24.22 604.091003
24.23 623.446289
24.24 626.800049
24.25 625.86377
24.26 629.371277
24.27 628.790894
24.28 626.632324
24.29 626.771301
24.30 625.175537
24.31 628.59491
24.32 626.302429
24.33 623.848572
24.34 624.848083
24.35 630.022339
24.36 630.893921
24.37 625.340088
24.38 622.483521
24.39 623.500916
24.40 631.564209
24.41 641.001831
24.42 643.433105
24.43 642.896729
24.44 628.34436
24.45 616.392029
24.46 617.779175
24.47 625.684021
24.48 628.829224
24.49 626.041321
24.50 632.574097
24.51 631.297729
24.52 625.035706
24.53 626.242493
24.54 627.42572
24.55 628.106445
24.56 627.326233
24.57 627.978394
24.58 634.498047
24.59 635.43988
24.60 635.884155
24.61 633.795837
24.62 629.855408
24.63 628.868896
24.64 627.253967
24.65 628.5802
24.66 633.755249
24.67 636.226563
24.68 636.209167
24.69 633.75116
24.70 631.334351
24.71 623.910461
24.72 619.006958
24.73 620.88208
24.74 622.557495
24.75 634.589172
24.76 638.179077
24.77 625.358459
24.78 616.857056
24.79 618.277954
24.80 619.89856
24.81 625.092407
24.82 624.231445
24.83 622.454712
24.84 627.15155
24.85 634.812744
24.86 633.024841
24.87 630.693481
24.88 637.274841
24.89 635.724731
24.90 632.408325
24.91 634.208496
24.92 634.506042
24.93 640.079651
24.94 637.521423
24.95 633.163391
24.96 631.812195
24.97 630.855957
24.98 635.236511
24.99 638.133606
25.00 643.375671
25.01 646.425171
25.02 648.078308
25.03 644.437195
25.04 638.829712
25.05 640.441345
25.06 637.643677
25.07 628.812622
25.08 626.59137
25.09 628.53009
25.10 634.168213
25.11 634.655701
25.12 632.959595
25.13 630.112305
25.14 627.954163
25.15 637.215454
25.16 649.137329
25.17 638.208313
25.18 636.315979
25.19 648.813721
25.20 646.781494
25.21 638.383789
25.22 637.372437
25.23 636.980347
25.24 641.802246
25.25 646.806213
25.26 644.387451
25.27 642.949463
25.28 641.636536
25.29 638.130127
25.30 628.593384
25.31 622.538513
25.32 631.57373
25.33 631.579285
25.34 626.680847
25.35 620.698914
25.36 619.217773
25.37 623.625977
25.38 625.050537
25.39 632.619263
25.40 637.340332
25.41 635.713623
25.42 637.350464
25.43 639.131592
25.44 636.157471
25.45 638.609131
25.46 636.148743
25.47 632.36676
25.48 634.776672
25.49 633.000488
25.50 634.11615
25.51 639.076721
25.52 644.40564
25.53 650.986389
25.54 646.13208
25.55 636.526367
25.56 633.202637
25.57 632.112854
25.58 632.646362
25.59 639.761169
25.60 641.557739
25.61 639.809509
25.62 641.658813
25.63 642.954285
25.64 634.950989
25.65 632.194336
25.66 638.173157
25.67 636.309387
25.68 630.947632
25.69 622.506592
25.70 619.947083
25.71 629.19281
25.72 630.908875
25.73 635.40918
25.74 640.234802
25.75 640.307678
25.76 640.629395
25.77 642.81189
25.78 643.340271
25.79 644.511658
25.80 643.225647
25.81 646.052673
25.82 645.598328
25.83 640.820923
25.84 638.720947
25.85 641.59198
25.86 640.252502
25.87 630.128784
25.88 622.872253
25.89 625.129028
25.90 629.748962
25.91 640.520996
25.92 650.183777
25.93 644.1203
25.94 636.378601
25.95 635.093933
25.96 632.991211
25.97 632.909668
25.98 637.719177
25.99 631.635315
26.00 622.655762
26.01 623.620789
26.02 626.37207
26.03 624.959167
26.04 632.036194
26.05 638.000122
26.06 638.151367
26.07 635.941895
26.08 638.583191
26.09 640.138306
26.10 644.006592
26.11 644.253723
26.12 638.216064
26.13 630.322693
26.14 633.64679
26.15 634.815674
26.16 633.157532
26.17 636.082275
26.18 634.658264
26.19 627.774719
26.20 630.212646
26.21 630.976318
26.22 621.498413
26.23 619.284668
26.24 630.277893
26.25 637.88446
26.26 637.574829
26.27 631.364441
26.28 622.942017
26.29 621.133728
26.30 628.835144
26.31 632.722046
26.32 637.268433
26.33 636.414246
26.34 637.598694
26.35 642.273499
26.36 637.937317
26.37 631.301331
26.38 631.656616
26.39 628.204956
26.40 625.993469
26.41 623.320068
26.42 628.716919
26.43 634.66449
26.44 633.378113
26.45 634.308594
26.46 634.779907
26.47 634.137512
26.48 635.184937
26.49 638.502869
26.50 641.386597
26.51 641.177429
26.52 635.347961
26.53 624.397705
26.54 617.586243
26.55 625.90332
26.56 640.199463
26.57 647.667297
26.58 643.656189
26.59 638.965271
26.60 635.033875
26.61 626.554871
26.62 617.392578
26.63 615.466064
26.64 620.733276
26.65 629.780273
26.66 629.722839
26.67 625.198059
26.68 620.699585
26.69 623.661621
26.70 626.115967
26.71 625.705139
26.72 625.415649
26.73 630.54834
26.74 629.159119
26.75 627.257446
26.76 631.171143
26.77 634.586548
26.78 635.443237
26.79 628.167908
26.80 618.271851
26.81 614.047913
26.82 617.657959
26.83 632.38916
26.84 638.374939
26.85 642.894958
26.86 641.969421
26.87 633.497009
26.88 634.275391
26.89 634.615295
26.90 635.383118
26.91 631.36261
26.92 618.433105
26.93 613.888245
26.94 620.657898
26.95 625.891907
26.96 628.015442
26.97 629.193298
26.98 623.634888
26.99 618.93158
27.00 616.781006
27.01 616.199463
27.02 626.344055
27.03 631.531555
27.04 628.331909
27.05 637.989197
27.06 642.171326
27.07 635.813354
27.08 627.204346
27.09 617.722473
27.10 616.528931
27.11 615.177979
27.12 611.992981
27.13 614.426025
27.14 622.197388
27.15 627.807007
27.16 628.073486
27.17 621.987549
27.18 617.315491
27.19 618.25354
27.20 617.235107
27.21 622.875366
27.22 629.40332
27.23 631.732056
27.24 632.629761
27.25 634.415649
27.26 637.128662
27.27 631.949158
27.28 619.57251
27.29 612.214478
27.30 612.424622
27.31 614.780457
27.32 615.875488
27.33 620.447693
27.34 617.222778
27.35 611.522827
27.36 611.527039
27.37 616.587402
27.38 618.355896
27.39 619.331848
27.40 624.542236
27.41 632.361389
27.42 640.529236
27.43 629.589417
27.44 618.943359
27.45 616.076416
27.46 619.187378
27.47 626.857117
27.48 634.46637
27.49 631.06311
27.50 628.220459
27.51 622.76825
27.52 623.629089
27.53 630.844116
27.54 628.909912
27.55 627.764648
27.56 626.761963
27.57 628.671936
27.58 629.589844
27.59 624.075317
27.60 615.318054
27.61 612.474915
27.62 618.364075
27.63 624.215454
27.64 631.196777
27.65 631.531677
27.66 628.31427
27.67 620.764587
27.68 623.058655
27.69 623.571106
27.70 619.031616
27.71 623.335388
27.72 621.863037
27.73 622.879272
27.74 624.548096
27.75 628.312134
27.76 624.055298
27.77 616.397827
27.78 610.751099
27.79 613.380554
27.80 606.11908
27.81 601.56012
27.82 605.480347
27.83 605.806335
27.84 608.220825
27.85 614.745728
27.86 615.327942
27.87 620.159058
27.88 624.031372
27.89 625.638672
27.90 626.375
27.91 623.438049
27.92 623.400024
27.93 613.408936
27.94 612.628906
27.95 615.731873
27.96 613.541626
27.97 613.502502
27.98 611.425476
27.99 608.175049
28.00 608.080566
28.01 608.896118
28.02 609.293701
28.03 612.300293
28.04 616.724182
28.05 615.751221
28.06 615.902405
28.07 619.095947
28.08 618.47345
28.09 618.140198
28.10 612.921021
28.11 616.230225
28.12 618.559265
28.13 611.126404
28.14 609.46814
28.15 610.274658
28.16 612.315247
28.17 620.01593
28.18 630.21936
28.19 628.38324
28.20 624.541565
28.21 617.980347
28.22 616.000854
28.23 617.04126
28.24 617.084961
28.25 614.206665
28.26 616.206848
28.27 618.472595
28.28 620.428772
28.29 620.91748
28.30 615.115295
28.31 612.655579
28.32 618.156555
28.33 630.183716
28.34 637.278564
28.35 623.674622
28.36 612.598022
28.37 609.065369
28.38 605.34198
28.39 617.750183
28.40 622.775757
28.41 617.626892
28.42 613.944092
28.43 608.777649
28.44 615.67572
28.45 617.40979
28.46 613.67041
28.47 623.477661
28.48 631.517395
28.49 625.653748
28.50 618.635315
28.51 618.467102
28.52 619.478088
28.53 619.698181
28.54 617.188477
28.55 616.439148
28.56 616.943237
28.57 615.464661
28.58 618.806946
28.59 624.728027
28.60 621.063416
28.61 617.845886
28.62 612.604614
28.63 609.682312
28.64 613.22052
28.65 611.879333
28.66 607.652771
28.67 609.219055
28.68 612.146606
28.69 610.046021
28.70 610.479614
28.71 610.374878
28.72 610.483582
28.73 616.456787
28.74 619.592529
28.75 619.461975
28.76 610.017029
28.77 609.801025
28.78 617.104736
28.79 624.620544
28.80 625.220764
28.81 621.46936
28.82 614.628784
28.83 612.009766
28.84 620.59668
28.85 622.135071
28.86 628.772156
28.87 634.076965
28.88 632.566467
28.89 625.631409
28.90 617.903442
28.91 609.800537
28.92 605.188293
28.93 608.067932
28.94 610.195068
28.95 615.853027
28.96 616.304016
28.97 608.932678
28.98 611.154419
28.99 621.621582
29.00 622.189453
29.01 618.867249
29.02 612.24054
29.03 608.173462
29.04 603.605408
29.05 601.873657
29.06 608.074951
29.07 608.37207
29.08 598.057861
29.09 601.15387
29.10 607.617004
29.11 608.998901
29.12 607.051025
29.13 607.379517
29.14 612.557068
29.15 606.471313
29.16 598.955566
29.17 601.936218
29.18 613.742676
29.19 608.494995
29.20 602.685791
29.21 605.184509
29.22 612.002014
29.23 609.4823
29.24 604.699158
29.25 609.975159
29.26 610.998901
29.27 606.895386
29.28 602.808655
29.29 599.066406
29.30 601.012695
29.31 603.730835
29.32 603.112976
29.33 604.189026
29.34 606.120544
29.35 612.927673
29.36 617.473633
29.37 611.917358
29.38 614.199829
29.39 615.436401
29.40 610.062927
29.41 605.589478
29.42 608.075989
29.43 612.369202
29.44 615.988831
29.45 619.607056
29.46 624.647217
29.47 626.796997
29.48 625.901306
29.49 617.65387
29.50 608.107239
29.51 601.04187
29.52 597.608032
29.53 603.885742
29.54 615.52594
29.55 612.13916
29.56 609.383484
29.57 610.680969
29.58 610.481506
29.59 607.651123
29.60 607.230408
29.61 611.763916
29.62 606.366211
29.63 597.97876
29.64 600.110474
29.65 603.693848
29.66 609.691833
29.67 615.1521
29.68 619.618774
29.69 620.577148
29.70 617.19397
29.71 610.051758
29.72 607.443054
29.73 605.182068
29.74 606.828125
29.75 603.494324
29.76 604.869629
29.77 606.977356
29.78 610.087402
29.79 611.818237
29.80 611.719849
29.81 613.742065
29.82 607.772888
29.83 601.08728
29.84 601.766235
29.85 609.522217
29.86 607.675598
29.87 601.661865
29.88 599.827881
29.89 603.026855
29.90 604.742371
29.91 603.995728
29.92 608.404358
29.93 606.519836
29.94 599.084106
29.95 605.204407
29.96 608.538025
29.97 603.393311
29.98 603.611145
29.99 609.276611
30.00 613.317871
30.01 616.238159
30.02 610.609863
30.03 604.243774
30.04 609.944763
30.05 610.527161
30.06 605.711365
30.07 605.281982
30.08 607.301392
30.09 604.65918
30.10 604.142395
30.11 608.351013
30.12 612.865784
30.13 610.875549
30.14 605.080811
30.15 601.840881
30.16 602.509583
30.17 601.055115
30.18 609.478333
30.19 621.782471
30.20 623.416565
30.21 611.403015
30.22 604.375122
30.23 611.373108
30.24 613.102905
30.25 610.449524
30.26 612.400269
30.27 614.028381
30.28 617.23468
30.29 615.378174
30.30 614.520508
30.31 612.928223
30.32 613.032227
30.33 607.083801
30.34 600.814514
30.35 609.159851
30.36 619.127014
30.37 626.187988
30.38 625.387695
30.39 619.241516
30.40 613.184631
30.41 612.791138
30.42 616.771484
30.43 621.623779
30.44 620.844421
30.45 619.78418
30.46 622.080139
30.47 618.04364
30.48 603.831299
30.49 602.839417
30.50 607.821655
30.51 611.464844
30.52 621.524414
30.53 628.183289
30.54 629.867126
30.55 631.003235
30.56 631.360657
30.57 629.349487
30.58 628.924683
30.59 621.234619
30.60 606.847107
30.61 606.839172
30.62 612.77002
30.63 612.955994
30.64 615.264709
30.65 611.884033
30.66 612.7901
30.67 614.252686
30.68 618.906433
30.69 624.029541
30.70 626.026001
30.71 622.149902
30.72 620.874756
30.73 619.271729
30.74 614.426453
30.75 618.533081
30.76 623.965515
30.77 628.361877
30.78 627.200989
30.79 634.085449
30.80 637.73175
30.81 644.322449
30.82 650.294861
30.83 644.542664
30.84 643.127869
30.85 648.653198
30.86 656.484619
30.87 654.36792
30.88 654.735657
30.89 656.629272
30.90 659.851563
30.91 660.561707
30.92 667.885498
30.93 680.153625
30.94 686.901917
30.95 703.466553
30.96 712.687866
30.97 723.531433
30.98 726.651184
30.99 733.177917
31.00 734.328918
31.01 746.610779
31.02 754.440857
31.03 747.641602
31.04 754.628723
31.05 762.043701
31.06 765.074585
31.07 763.86792
31.08 759.975037
31.09 759.802002
31.10 762.346802
31.11 763.225403
31.12 765.323425
31.13 766.523865
31.14 769.580994
31.15 775.354614
31.16 769.562317
31.17 755.274719
31.18 756.161377
31.19 749.248474
31.20 747.097229
31.21 733.113647
31.22 723.115295
31.23 721.003418
31.24 707.94281
31.25 698.177368
31.26 690.583008
31.27 689.867004
31.28 678.993042
31.29 673.539307
31.30 661.881531
31.31 643.397156
31.32 636.210205
31.33 635.815674
31.34 633.079285
31.35 629.651672
31.36 629.092468
31.37 628.051514
31.38 627.075745
31.39 614.822327
31.40 607.157654
31.41 612.54834
31.42 611.234985
31.43 601.466736
31.44 603.27063
31.45 607.400391
31.46 596.309143
31.47 591.860291
31.48 586.196045
31.49 582.508606
31.50 586.276001
31.51 589.0448
31.52 589.194824
31.53 584.90741
31.54 578.49054
31.55 584.038818
31.56 589.308594
31.57 590.298767
31.58 588.861206
31.59 586.492371
31.60 583.839478
31.61 578.625183
31.62 568.358337
31.63 564.451294
31.64 564.049866
31.65 563.724854
31.66 563.846802
31.67 561.87085
31.68 565.22168
31.69 570.866699
31.70 564.115173
31.71 563.217224
31.72 568.9823
31.73 572.222473
31.74 575.362671
31.75 572.363159
31.76 573.098145
31.77 571.603516
31.78 572.624939
31.79 576.011963
31.80 572.77655
31.81 569.291382
31.82 571.156677
31.83 573.123413
31.84 565.4328
31.85 565.238708
31.86 558.852539
31.87 556.472229
31.88 557.616089
31.89 555.028809
31.90 548.137695
31.91 544.984192
31.92 550.769531
31.93 557.088684
31.94 555.527893
31.95 555.245789
31.96 555.937073
31.97 553.631042
31.98 545.054321
31.99 538.379456
32.00 542.848206
32.01 550.872925
32.02 556.986816
32.03 561.028992
32.04 559.491882
32.05 554.307068
32.06 549.819153
32.07 556.479858
32.08 561.301514
32.09 557.50647
32.10 552.219666
32.11 545.795654
32.12 537.256653
32.13 535.896118
32.14 545.523804
32.15 548.823853
32.16 552.257019
32.17 551.870239
32.18 547.717224
32.19 546.813232
32.20 543.791809
32.21 542.241089
32.22 544.569153
32.23 544.278076
32.24 543.230591
32.25 542.456116
32.26 542.407837
32.27 544.776489
32.28 544.331238
32.29 541.033264
32.30 542.3526
32.31 546.726563
32.32 547.136292
32.33 544.881287
32.34 545.394897
32.35 543.631104
32.36 542.321411
32.37 545.763306
32.38 546.764282
32.39 548.292664
32.40 551.353027
32.41 544.20929
32.42 532.226257
32.43 528.559998
32.44 526.780762
32.45 528.164856
32.46 531.786804
32.47 531.143738
32.48 537.338379
32.49 546.439331
32.50 547.959595
32.51 543.81427
32.52 543.061279
32.53 543.644043
32.54 544.373169
32.55 537.961548
32.56 535.679993
32.57 535.369141
32.58 531.271729
32.59 532.418213
32.60 526.527588
32.61 524.904541
32.62 534.823669
32.63 538.427124
32.64 535.638184
32.65 531.656311
32.66 529.498169
32.67 532.392639
32.68 534.066772
32.69 531.948059
32.70 525.
32.71 520.594299
32.72 524.8573
32.73 530.376526
32.74 525.60553
32.75 524.983093
32.76 529.355652
32.77 527.863342
32.78 524.998169
32.79 524.973999
32.80 525.637573
32.81 525.221313
32.82 526.044861
32.83 521.982239
32.84 516.074402
32.85 515.157043
32.86 518.740601
32.87 515.275269
32.88 518.584839
32.89 525.612549
32.90 529.5271
32.91 524.555176
32.92 520.167358
32.93 519.265503
32.94 522.949341
32.95 525.503113
32.96 520.564209
32.97 520.52478
32.98 527.225586
32.99 520.6745
33.00 515.084412
33.01 514.918762
33.02 521.394592
33.03 527.636108
33.04 528.883545
33.05 522.502563
33.06 517.140015
33.07 516.430237
33.08 519.733215
33.09 516.90686
33.10 516.307312
33.11 516.530273
33.12 507.1297
33.13 504.952393
33.14 511.33078
33.15 513.319397
33.16 514.090454
33.17 516.504456
33.18 513.182373
33.19 509.04538
33.20 508.475372
33.21 510.409088
33.22 507.321014
33.23 505.540009
33.24 516.560547
33.25 515.678467
33.26 510.599487
33.27 513.281799
33.28 512.15625
33.29 504.966125
33.30 508.109772
33.31 514.522156
33.32 515.829102
33.33 514.045105
33.34 510.282623
33.35 505.681427
33.36 498.946777
33.37 494.532074
33.38 500.805511
33.39 499.068878
33.40 496.777313
33.41 507.045074
33.42 514.299622
33.43 511.266846
33.44 509.559418
33.45 509.634857
33.46 510.930573
33.47 508.441559
33.48 508.348083
33.49 505.766724
33.50 501.039642
33.51 502.237091
33.52 507.122009
33.53 510.890961
33.54 507.899597
33.55 505.234528
33.56 510.802643
33.57 510.791718
33.58 509.507874
33.59 512.447449
33.60 510.203827
33.61 505.868286
33.62 500.860504
33.63 498.954803
33.64 496.146759
33.65 498.69873
33.66 502.589935
33.67 495.236877
33.68 492.368378
33.69 496.722076
33.70 497.779144
33.71 496.790924
33.72 496.097107
33.73 500.380127
33.74 501.769196
33.75 504.899261
33.76 506.329315
33.77 500.866058
33.78 500.207642
33.79 498.269989
33.80 492.382111
33.81 484.856049
33.82 485.417236
33.83 498.745453
33.84 501.27713
33.85 496.600922
33.86 491.77066
33.87 487.830048
33.88 486.894196
33.89 485.986938
33.90 490.156281
33.91 491.125824
33.92 488.960052
33.93 496.077606
33.94 500.758698
33.95 498.305756
33.96 496.04718
33.97 490.928528
33.98 489.902344
33.99 492.007813
34.00 497.281799
34.01 497.868378
34.02 499.544281
34.03 505.772247
34.04 506.479462
34.05 503.999176
34.06 499.44519
34.07 494.269928
34.08 493.202972
34.09 489.383575
34.10 491.565552
34.11 492.948669
34.12 494.413879
34.13 494.914459
34.14 488.112823
34.15 486.448273
34.16 491.171143
34.17 497.882355
34.18 501.932617
34.19 500.707886
34.20 499.54425
34.21 502.829163
34.22 497.372711
34.23 491.611298
34.24 494.246307
34.25 490.631592
34.26 486.897339
34.27 483.838043
34.28 488.248688
34.29 499.762665
34.30 507.033936
34.31 512.108765
34.32 503.426147
34.33 496.452484
34.34 499.409302
34.35 495.775726
34.36 489.675018
34.37 486.846252
34.38 493.470917
34.39 495.928925
34.40 497.658539
34.41 496.498444
34.42 495.288422
34.43 497.864471
34.44 503.408966
34.45 510.185669
34.46 514.09552
34.47 512.956055
34.48 515.411621
34.49 512.397278
34.50 506.920807
34.51 501.881287
34.52 500.724213
34.53 498.259155
34.54 497.739288
34.55 504.951874
34.56 509.932678
34.57 506.513916
34.58 508.373566
34.59 513.134644
34.60 513.633301
34.61 514.134094
34.62 515.576416
34.63 512.371704
34.64 510.121002
34.65 517.627014
34.66 518.130737
34.67 515.44751
34.68 515.539795
34.69 508.869507
34.70 511.810028
34.71 518.940735
34.72 526.679932
34.73 532.731018
34.74 530.239197
34.75 524.845398
34.76 529.41394
34.77 532.221191
34.78 528.863892
34.79 518.673828
34.80 517.10022
34.81 522.232239
34.82 521.212585
34.83 526.199402
34.84 531.303162
34.85 527.28418
34.86 525.330627
34.87 525.99823
34.88 523.106445
34.89 521.753296
34.90 518.547668
34.91 513.759033
34.92 514.065552
34.93 517.963501
34.94 517.733704
34.95 520.65979
34.96 522.677246
34.97 523.838135
34.98 519.030945
34.99 515.422119
35.00 520.169739
35.01 523.176941
35.02 525.463074
35.03 524.353455
35.04 514.687134
35.05 508.976074
35.06 508.778717
35.07 504.389801
35.08 501.975281
35.09 497.646332
35.10 495.061523
35.11 499.70639
35.12 501.00354
35.13 491.326202
35.14 483.712891
35.15 485.791748
35.16 492.124786
35.17 495.183441
35.18 494.437073
35.19 491.547455
35.20 485.187683
35.21 478.513885
35.22 476.319824
35.23 471.653564
35.24 472.075134
35.25 475.005615
35.26 472.928894
35.27 474.928497
35.28 472.391388
35.29 462.862732
35.30 456.108368
35.31 459.060822
35.32 461.071198
35.33 458.105621
35.34 457.2341
35.35 458.741119
35.36 460.095581
35.37 461.608887
35.38 456.397034
35.39 449.445099
35.40 443.709351
35.41 442.43277
35.42 442.573822
35.43 440.607361
35.44 439.398529
35.45 438.927277
35.46 448.547516
35.47 456.181244
35.48 454.051208
35.49 447.567078
35.50 440.046143
35.51 446.231079
35.52 453.577728
35.53 454.502014
35.54 455.985229
35.55 449.244873
35.56 437.185303
35.57 442.297089
35.58 442.628326
35.59 434.489044
35.60 441.041382
35.61 440.012329
35.62 436.351898
35.63 437.820801
35.64 431.364838
35.65 428.915863
35.66 438.033722
35.67 440.036896
35.68 439.396637
35.69 434.069611
35.70 426.416718
35.71 422.109467
35.72 420.854919
35.73 425.589661
35.74 427.002411
35.75 426.762878
35.76 427.647339
35.77 429.583496
35.78 429.874786
35.79 432.036469
35.80 427.189545
35.81 425.861694
35.82 430.48642
35.83 433.296265
35.84 427.836975
35.85 422.410706
35.86 414.586212
35.87 413.884338
35.88 419.584137
35.89 423.460815
35.90 424.708008
35.91 421.436676
35.92 420.354736
35.93 428.395935
35.94 430.371124
35.95 425.351563
35.96 423.503601
35.97 425.183533
35.98 423.227142
35.99 421.889709
36.00 417.95462
36.01 419.701691
36.02 421.34314
36.03 419.265076
36.04 424.035767
36.05 423.939667
36.06 416.384399
36.07 413.997253
36.08 411.713684
36.09 410.241089
36.10 410.560852
36.11 411.485107
36.12 409.64975
36.13 406.953156
36.14 403.626404
36.15 410.275787
36.16 412.866913
36.17 410.657623
36.18 409.83194
36.19 414.144623
36.20 413.84845
36.21 417.29245
36.22 420.857025
36.23 414.661499
36.24 410.16629
36.25 404.95575
36.26 398.274048
36.27 402.418427
36.28 400.726135
36.29 403.874054
36.30 409.651764
36.31 408.182373
36.32 407.539795
36.33 407.556
36.34 406.659882
36.35 405.690338
36.36 409.330414
36.37 408.745483
36.38 404.212708
36.39 405.212128
36.40 406.535675
36.41 404.81897
36.42 403.464264
36.43 405.280273
36.44 406.365417
36.45 403.449707
36.46 401.114136
36.47 403.3927
36.48 402.857544
36.49 401.898987
36.50 400.048615
36.51 395.816132
36.52 396.645996
36.53 399.821442
36.54 399.30069
36.55 399.936249
36.56 396.913635
36.57 391.369202
36.58 393.02774
36.59 399.161377
36.60 403.201141
36.61 397.331482
36.62 389.71936
36.63 390.162384
36.64 393.484711
36.65 403.401215
36.66 410.535645
36.67 407.062408
36.68 404.603851
36.69 402.191223
36.70 393.613708
36.71 392.399048
36.72 391.324554
36.73 393.017303
36.74 390.26825
36.75 381.350403
36.76 383.697266
36.77 386.734741
36.78 388.371826
36.79 383.96875
36.80 381.950531
36.81 384.369629
36.82 388.831299
36.83 391.316864
36.84 390.218903
36.85 395.066101
36.86 400.905365
36.87 397.386505
36.88 392.24527
36.89 385.144592
36.90 380.475189
36.91 379.517181
36.92 381.83316
36.93 387.923279
36.94 390.789612
36.95 387.194244
36.96 384.299408
36.97 386.053558
36.98 387.177734
36.99 388.362549
37.00 390.86792
37.01 392.015198
37.02 389.894836
37.03 388.038788
37.04 388.144348
37.05 386.718109
37.06 387.036957
37.07 381.009766
37.08 375.176178
37.09 376.53299
37.10 378.910797
37.11 380.350128
37.12 382.643982
37.13 379.794495
37.14 380.072693
37.15 381.717743
37.16 379.75238
37.17 381.025391
37.18 381.094177
37.19 377.552765
37.20 372.721619
37.21 370.392548
37.22 372.373108
37.23 377.17395
37.24 380.407013
37.25 384.48053
37.26 385.93924
37.27 384.012299
37.28 381.634827
37.29 380.740875
37.30 382.591614
37.31 384.696503
37.32 381.247803
37.33 380.393707
37.34 382.375366
37.35 381.675964
37.36 379.459412
37.37 379.024536
37.38 381.885284
37.39 379.355743
37.40 370.113434
37.41 365.887268
37.42 370.209625
37.43 377.834167
37.44 378.261627
37.45 372.628235
37.46 367.026276
37.47 364.564545
37.48 373.10318
37.49 380.070679
37.50 373.64917
37.51 372.221619
37.52 369.528473
37.53 369.153412
37.54 372.472961
37.55 369.20224
37.56 371.249146
37.57 369.656677
37.58 368.938904
37.59 371.318146
37.60 368.721619
37.61 366.952454
37.62 362.651794
37.63 363.127716
37.64 371.203369
37.65 370.395416
37.66 369.160034
37.67 370.953857
37.68 372.582489
37.69 366.977295
37.70 361.968658
37.71 362.168915
37.72 359.800049
37.73 361.094635
37.74 361.248138
37.75 361.818756
37.76 360.395416
37.77 361.97049
37.78 366.017761
37.79 366.286926
37.80 365.235962
37.81 362.754517
37.82 365.089417
37.83 364.231873
37.84 364.741119
37.85 361.820984
37.86 361.580139
37.87 366.565369
37.88 367.806488
37.89 362.8479
37.90 354.571564
37.91 354.308502
37.92 359.625244
37.93 361.537506
37.94 366.442688
37.95 361.69519
37.96 357.591431
37.97 360.271973
37.98 363.072418
37.99 363.574432
38.00 368.280121
38.01 373.482208
38.02 375.22995
38.03 369.345886
38.04 367.366394
38.05 364.172974
38.06 360.949249
38.07 364.85321
38.08 368.805389
38.09 367.387146
38.10 365.578644
38.11 363.083344
38.12 363.802063
38.13 362.213257
38.14 359.212646
38.15 365.446594
38.16 366.141571
38.17 364.65271
38.18 361.304443
38.19 367.537354
38.20 374.497101
38.21 373.087433
38.22 374.933624
38.23 370.805725
38.24 366.483124
38.25 369.204437
38.26 368.879303
38.27 368.114136
38.28 369.139587
38.29 367.091766
38.30 368.329071
38.31 368.050293
38.32 366.938507
38.33 372.659668
38.34 374.640503
38.35 365.229736
38.36 360.738007
38.37 362.195404
38.38 358.446045
38.39 352.370758
38.40 355.689362
38.41 360.665863
38.42 358.398376
38.43 360.092834
38.44 367.654266
38.45 369.79303
38.46 372.017975
38.47 377.056244
38.48 374.969269
38.49 372.147705
38.50 365.116089
38.51 365.914795
38.52 371.419922
38.53 368.086487
38.54 365.188599
38.55 365.035492
38.56 366.029053
38.57 359.633057
38.58 355.664429
38.59 358.79422
38.60 362.344971
38.61 357.010834
38.62 359.94873
38.63 362.009033
38.64 358.702667
38.65 358.467773
38.66 351.828979
38.67 345.917053
38.68 348.864899
38.69 350.493347
38.70 351.310364
38.71 350.54306
38.72 350.488068
38.73 350.036224
38.74 347.997223
38.75 350.798706
38.76 351.629761
38.77 353.695892
38.78 354.631561
38.79 353.256042
38.80 358.53299
38.81 361.585419
38.82 359.784302
38.83 358.374268
38.84 353.917175
38.85 350.108063
38.86 352.532013
38.87 351.681396
38.88 352.65213
38.89 356.422455
38.90 354.397766
38.91 351.733063
38.92 354.630371
38.93 353.926819
38.94 354.269806
38.95 351.493774
38.96 344.355103
38.97 342.171234
38.98 343.343414
38.99 343.440155
39.00 344.088226
39.01 345.781708
39.02 342.060303
39.03 341.852997
39.04 345.058594
39.05 347.472961
39.06 348.052917
39.07 351.434143
39.08 352.162292
39.09 352.281982
39.10 350.223114
39.11 346.419952
39.12 343.44397
39.13 342.562103
39.14 341.077484
39.15 346.859253
39.16 349.971741
39.17 349.344269
39.18 351.42984
39.19 349.141907
39.20 350.7034
39.21 353.944519
39.22 358.358063
39.23 361.015564
39.24 356.702454
39.25 352.004425
39.26 347.797821
39.27 345.90564
39.28 348.41156
39.29 352.093079
39.30 343.709106
39.31 338.368896
39.32 342.026062
39.33 342.772278
39.34 341.847717
39.35 341.635071
39.36 346.640442
39.37 351.315216
39.38 349.190063
39.39 344.382843
39.40 342.808899
39.41 343.395782
39.42 347.922272
39.43 355.985382
39.44 354.491821
39.45 348.716614
39.46 343.72171
39.47 339.944946
39.48 341.593323
39.49 346.704559
39.50 345.83313
39.51 345.981964
39.52 347.304626
39.53 346.510468
39.54 346.030945
39.55 343.388184
39.56 343.711609
39.57 343.441803
39.58 343.220276
39.59 343.320038
39.60 342.393341
39.61 346.049927
39.62 349.651154
39.63 346.478363
39.64 340.917236
39.65 336.969482
39.66 337.646973
39.67 334.078918
39.68 331.164154
39.69 333.909302
39.70 333.064911
39.71 335.646027
39.72 341.972687
39.73 342.778198
39.74 341.525238
39.75 339.622803
39.76 336.212128
39.77 340.313232
39.78 343.839081
39.79 341.620087
39.80 338.981323
39.81 341.519257
39.82 341.300323
39.83 337.126068
39.84 341.261078
39.85 344.390137
39.86 338.369263
39.87 336.540466
39.88 338.210907
39.89 337.131714
39.90 337.076996
39.91 344.065735
39.92 346.474609
39.93 340.444183
39.94 344.329987
39.95 350.609833
39.96 348.428497
39.97 348.322601
39.98 350.508331
39.99 351.785583
40.00 348.093475
40.01 343.032684
40.02 345.171143
40.03 347.458344
40.04 345.978546
40.05 343.376526
40.06 343.178894
40.07 344.197723
40.08 342.616425
40.09 347.362
40.10 345.189667
40.11 340.927307
40.12 340.765991
40.13 340.131561
40.14 337.964966
40.15 333.076172
40.16 331.635345
40.17 331.829254
40.18 331.665985
40.19 335.193848
40.20 335.567261
40.21 337.331879
40.22 338.684692
40.23 337.90509
40.24 337.306488
40.25 336.754822
40.26 334.450043
40.27 335.595886
40.28 334.75473
40.29 338.702301
40.30 340.576752
40.31 338.845917
40.32 341.999207
40.33 337.923706
40.34 333.041016
40.35 331.814209
40.36 333.246826
40.37 335.166504
40.38 335.020935
40.39 332.838776
40.40 335.38028
40.41 339.347992
40.42 343.676788
40.43 345.456238
40.44 335.413849
40.45 329.301086
40.46 327.467773
40.47 329.435303
40.48 331.274261
40.49 329.374176
40.50 331.192261
40.51 332.215881
40.52 335.011688
40.53 339.37027
40.54 338.825317
40.55 342.823761
40.56 344.078186
40.57 342.645844
40.58 342.76413
40.59 337.426575
40.60 335.411621
40.61 341.246948
40.62 340.040619
40.63 341.451874
40.64 339.549316
40.65 333.735443
40.66 340.372864
40.67 340.24646
40.68 336.031433
40.69 337.875
40.70 339.815643
40.71 343.915375
40.72 348.091858
40.73 346.201996
40.74 347.142853
40.75 346.577026
40.76 342.805664
40.77 339.574585
40.78 338.213928
40.79 335.696442
40.80 332.084686
40.81 337.29834
40.82 339.340912
40.83 336.07428
40.84 332.039551
40.85 329.652313
40.86 331.199554
40.87 335.804291
40.88 341.825562
40.89 341.080017
40.90 340.58429
40.91 337.431427
40.92 329.763306
40.93 332.280273
40.94 339.159393
40.95 339.568054
40.96 340.885193
40.97 341.157349
40.98 337.540222
40.99 331.775543
41.00 333.038818
41.01 338.757172
41.02 340.006805
41.03 335.023438
41.04 331.572571
41.05 333.772675
41.06 334.177887
41.07 333.537354
41.08 332.374054
41.09 331.467621
41.10 330.769897
