!@!!GADDS PLOTSO FILE: Chi integration type
!@!!Title/SampleName: ML_MAPbX3
!@!!User: NREL
!@!!Site: NREL SERF C211; SN 2510
!@!!Frame: 081022_MLProject_000_013.gfrm
!@!!Wavelengths    1.54184   1.54056   1.54439
!@!!Frame angles: 2Theta: 28.000 Omega: 5.000 Phi: 0.000 Chi: 90.000
!@!!Integration range: 2Theta: 10.000 to 40.000  Gamma: -100.000 to -80.000
!@!!Integration method: bin normalized
!@!N
!@!SS
!@!M
!@!L 0.0 0.0 0.0 0.0
!@!XDegrees
!@!YCounts
10.00 222.313019
10.02 197.184357
10.04 182.998077
10.06 206.544815
10.08 216.801926
10.10 202.532379
10.12 200.304474
10.14 195.123734
10.16 219.467957
10.18 221.776978
10.20 206.8564
10.22 204.905563
10.24 213.317368
10.26 213.90831
10.28 208.279266
10.30 224.254822
10.32 210.433487
10.34 218.222412
10.36 202.886932
10.38 199.864471
10.40 198.554276
10.42 203.020203
10.44 206.315079
10.46 209.040329
10.48 209.327087
10.50 220.829224
10.52 209.897842
10.54 211.340134
10.56 209.786713
10.58 202.076355
10.60 206.36142
10.62 218.308655
10.64 230.761642
10.66 210.76329
10.68 208.382111
10.70 232.671677
10.72 234.542526
10.74 213.00116
10.76 216.69603
10.78 208.580872
10.80 218.5625
10.82 227.050217
10.84 216.054214
10.86 225.080353
10.88 247.375366
10.90 234.086823
10.92 215.876175
10.94 227.635269
10.96 242.024857
10.98 223.399796
11.00 220.539673
11.02 223.6996
11.04 220.528351
11.06 224.908371
11.08 236.928848
11.10 229.921066
11.12 225.837006
11.14 226.838318
11.16 230.848618
11.18 222.654327
11.20 213.813965
11.22 229.814041
11.24 224.640045
11.26 243.792313
11.28 228.933746
11.30 246.258957
11.32 237.253052
11.34 236.801865
11.36 240.400253
11.38 230.805573
11.40 214.341736
11.42 223.597031
11.44 240.524094
11.46 239.187302
11.48 251.015121
11.50 249.893478
11.52 254.11676
11.54 248.824509
11.56 237.992249
11.58 226.211472
11.60 217.81926
11.62 235.427414
11.64 237.613266
11.66 247.829773
11.68 245.663849
11.70 255.236099
11.72 254.733856
11.74 236.478317
11.76 233.882431
11.78 236.977554
11.80 245.97702
11.82 255.920013
11.84 247.616318
11.86 252.424652
11.88 262.854004
11.90 274.035095
11.92 275.796112
11.94 248.257431
11.96 256.992279
11.98 251.684769
12.00 249.106308
12.02 258.688354
12.04 250.387817
12.06 285.048309
12.08 296.32196
12.10 292.70105
12.12 292.368011
12.14 279.185913
12.16 283.680389
12.18 276.888916
12.20 282.695892
12.22 294.670746
12.24 294.755035
12.26 293.186676
12.28 265.319794
12.30 276.011505
12.32 284.845337
12.34 338.28476
12.36 349.953491
12.38 320.055573
12.40 299.717285
12.42 307.367889
12.44 341.564789
12.46 337.953094
12.48 343.789154
12.50 344.717957
12.52 363.397827
12.54 355.214752
12.56 360.090668
12.58 349.404938
12.60 359.716705
12.62 372.013489
12.64 360.109802
12.66 360.653656
12.68 356.233002
12.70 354.039673
12.72 353.258545
12.74 335.466461
12.76 339.053497
12.78 340.439392
12.80 340.808685
12.82 328.28714
12.84 320.930756
12.86 332.105927
12.88 330.986511
12.90 320.58136
12.92 318.363129
12.94 300.279236
12.96 290.458984
12.98 311.628754
13.00 309.940613
13.02 314.217682
13.04 292.603394
13.06 300.779724
13.08 288.969727
13.10 290.66452
13.12 278.220337
13.14 264.374023
13.16 260.318268
13.18 281.065308
13.20 297.245148
13.22 294.927032
13.24 289.741943
13.26 299.125702
13.28 292.7034
13.30 282.977905
13.32 297.968964
13.34 313.658539
13.36 312.284668
13.38 288.13446
13.40 298.860474
13.42 301.211609
13.44 291.737305
13.46 306.835144
13.48 308.758606
13.50 312.123871
13.52 308.046387
13.54 299.728699
13.56 303.540619
13.58 316.553955
13.60 339.729492
13.62 306.493835
13.64 295.656464
13.66 298.745605
13.68 308.458282
13.70 317.944611
13.72 327.543335
13.74 325.598816
13.76 330.819946
13.78 334.414581
13.80 333.710388
13.82 337.105499
13.84 328.769989
13.86 324.857391
13.88 350.034424
13.90 378.305145
13.92 381.981232
13.94 353.592468
13.96 376.292358
13.98 397.227661
14.00 416.987
14.02 422.772797
14.04 428.003876
14.06 421.806091
14.08 435.4021
14.10 440.359497
14.12 456.971497
14.14 498.173492
14.16 502.009766
14.18 512.043274
14.20 560.74884
14.22 592.355347
14.24 640.650574
14.26 671.672729
14.28 699.593933
14.30 717.596252
14.32 767.21106
14.34 823.651184
14.36 868.71521
14.38 904.367554
14.40 961.334534
14.42 1047.54187
14.44 1108.67395
14.46 1156.934082
14.48 1203.724243
14.50 1273.759766
14.52 1382.096924
14.54 1459.355225
14.56 1514.329224
14.58 1541.864136
14.60 1620.041992
14.62 1663.865356
14.64 1738.378906
14.66 1836.582764
14.68 1863.50415
14.70 1898.94104
14.72 2016.289673
14.74 2044.760742
14.76 2106.954102
14.78 2148.555664
14.80 2217.351074
14.82 2277.321289
14.84 2294.068115
14.86 2392.470703
14.88 2431.761719
14.90 2430.778564
14.92 2449.870361
14.94 2389.195557
14.96 2347.280029
14.98 2292.125
15.00 2204.016113
15.02 2113.886475
15.04 2024.830444
15.06 1853.437256
15.08 1758.215088
15.10 1638.619263
15.12 1519.373779
15.14 1383.095703
15.16 1258.831177
15.18 1123.39624
15.20 1021.399414
15.22 941.229675
15.24 861.045715
15.26 784.28717
15.28 719.132019
15.30 630.488525
15.32 607.114075
15.34 615.301941
15.36 575.443726
15.38 520.19342
15.40 522.340881
15.42 493.856995
15.44 479.877594
15.46 461.214325
15.48 441.110138
15.50 422.296997
15.52 405.419769
15.54 388.984558
15.56 384.225372
15.58 393.751282
15.60 373.02121
15.62 375.300018
15.64 386.891479
15.66 379.473938
15.68 370.605835
15.70 357.100983
15.72 359.960388
15.74 368.066315
15.76 357.172577
15.78 352.966858
15.80 368.632751
15.82 344.134125
15.84 340.730743
15.86 355.826233
15.88 356.822418
15.90 361.442383
15.92 338.394562
15.94 353.710052
15.96 351.189728
15.98 333.392456
16.00 339.864929
16.02 326.520386
16.04 328.744446
16.06 357.854248
16.08 365.128326
16.10 357.626221
16.12 353.110596
16.14 351.241394
16.16 332.197357
16.18 324.552216
16.20 334.952393
16.22 333.830811
16.24 331.756439
16.26 317.087006
16.28 313.584686
16.30 318.443573
16.32 312.491547
16.34 321.800568
16.36 344.496643
16.38 357.309509
16.40 360.816406
16.42 349.060577
16.44 343.539124
16.46 339.473969
16.48 344.099854
16.50 334.226471
16.52 323.290741
16.54 321.805023
16.56 326.364288
16.58 321.689484
16.60 322.321014
16.62 331.402954
16.64 367.621826
16.66 374.255005
16.68 343.68515
16.70 347.293182
16.72 361.731171
16.74 353.24881
16.76 338.58313
16.78 348.91214
16.80 343.710815
16.82 347.243866
16.84 337.045258
16.86 355.41568
16.88 350.145081
16.90 354.093262
16.92 336.003723
16.94 337.247955
16.96 327.509125
16.98 340.026398
17.00 337.657745
17.02 353.214661
17.04 359.564545
17.06 356.831909
17.08 357.027527
17.10 347.15683
17.12 325.737854
17.14 327.528748
17.16 351.014191
17.18 344.882751
17.20 329.655243
17.22 329.222961
17.24 339.8974
17.26 348.620422
17.28 360.378052
17.30 361.669403
17.32 372.969238
17.34 359.3461
17.36 344.957947
17.38 362.826324
17.40 360.96402
17.42 367.886963
17.44 385.503906
17.46 384.467773
17.48 354.424133
17.50 359.613129
17.52 390.145782
17.54 373.12207
17.56 357.304352
17.58 378.799103
17.60 362.330048
17.62 369.222168
17.64 371.287262
17.66 356.864685
17.68 366.063568
17.70 369.858002
17.72 361.322327
17.74 366.129364
17.76 386.909729
17.78 380.927094
17.80 379.484863
17.82 372.165771
17.84 374.28006
17.86 342.107239
17.88 354.30188
17.90 378.325836
17.92 359.577515
17.94 369.798187
17.96 357.339966
17.98 356.607452
18.00 383.879333
18.02 392.761658
18.04 391.732117
18.06 365.104187
18.08 388.767731
18.10 394.983337
18.12 405.448181
18.14 396.086731
18.16 373.139801
18.18 386.579987
18.20 393.239166
18.22 394.656891
18.24 400.360687
18.26 397.903046
18.28 384.538971
18.30 402.990723
18.32 386.444275
18.34 390.349518
18.36 405.472137
18.38 399.087494
18.40 404.203552
18.42 404.265533
18.44 385.91452
18.46 375.65274
18.48 389.970764
18.50 394.455109
18.52 403.233154
18.54 399.215912
18.56 411.274353
18.58 391.710663
18.60 414.230286
18.62 412.949738
18.64 411.737091
18.66 414.919373
18.68 408.052185
18.70 404.383881
18.72 409.101593
18.74 411.761353
18.76 395.675781
18.78 397.636108
18.80 391.229218
18.82 404.263702
18.84 409.128967
18.86 421.078125
18.88 431.631683
18.90 424.263763
18.92 429.665588
18.94 423.917511
18.96 424.587463
18.98 423.171326
19.00 414.512146
19.02 415.839539
19.04 408.66864
19.06 413.518036
19.08 413.188538
19.10 432.784332
19.12 440.350006
19.14 440.878387
19.16 430.984558
19.18 427.402222
19.20 431.909698
19.22 436.477448
19.24 448.881653
19.26 436.475311
19.28 430.138428
19.30 428.541412
19.32 439.0849
19.34 437.436066
19.36 448.320435
19.38 461.682007
19.40 460.438904
19.42 471.028259
19.44 454.81488
19.46 436.723206
19.48 433.871155
19.50 456.361725
19.52 469.127136
19.54 465.558746
19.56 455.322113
19.58 447.745636
19.60 468.775269
19.62 468.03717
19.64 471.683075
19.66 452.009644
19.68 432.255432
19.70 426.64328
19.72 444.190033
19.74 447.694244
19.76 441.831665
19.78 448.939301
19.80 447.911621
19.82 443.430603
19.84 455.34433
19.86 455.495911
19.88 459.208282
19.90 449.974823
19.92 455.134094
19.94 457.431732
19.96 451.981445
19.98 455.17749
20.00 458.795258
20.02 483.280426
20.04 491.651276
20.06 486.480225
20.08 473.276031
20.10 474.525146
20.12 484.227753
20.14 473.15509
20.16 458.835571
20.18 475.368774
20.20 483.043091
20.22 494.175262
20.24 483.914276
20.26 481.605896
20.28 474.593109
20.30 487.820129
20.32 492.966309
20.34 502.598663
20.36 512.844055
20.38 488.817474
20.40 496.839905
20.42 505.443481
20.44 503.721436
20.46 486.883514
20.48 490.314941
20.50 497.559967
20.52 507.690887
20.54 491.783203
20.56 490.967773
20.58 516.352173
20.60 511.691406
20.62 506.703583
20.64 514.778259
20.66 508.446198
20.68 499.204193
20.70 494.608704
20.72 498.274658
20.74 511.598419
20.76 518.644714
20.78 518.885376
20.80 514.473694
20.82 518.519958
20.84 512.925293
20.86 524.695618
20.88 534.466614
20.90 524.774475
20.92 540.781494
20.94 511.952911
20.96 512.248474
20.98 520.09729
21.00 536.977356
21.02 551.236572
21.04 539.924805
21.06 523.476074
21.08 507.815369
21.10 509.736084
21.12 525.217407
21.14 561.547302
21.16 532.552063
21.18 531.384705
21.20 542.385986
21.22 533.499817
21.24 533.87854
21.26 534.922241
21.28 531.369385
21.30 539.376404
21.32 538.234375
21.34 539.771729
21.36 548.782715
21.38 552.694519
21.40 555.068176
21.42 552.326843
21.44 552.179382
21.46 537.378174
21.48 549.516296
21.50 562.683716
21.52 560.444092
21.54 541.368591
21.56 548.455688
21.58 549.987488
21.60 554.229797
21.62 546.713196
21.64 556.309143
21.66 560.889587
21.68 581.563049
21.70 575.476624
21.72 546.187073
21.74 551.428528
21.76 553.097473
21.78 567.364075
21.80 565.543884
21.82 546.79541
21.84 558.147095
21.86 571.496704
21.88 561.057678
21.90 558.270691
21.92 558.036255
21.94 582.281555
21.96 594.774048
21.98 565.621704
22.00 588.656128
22.02 568.653076
22.04 568.030518
22.06 540.505066
22.08 556.180237
22.10 577.691162
22.12 554.240295
22.14 563.663818
22.16 580.81189
22.18 576.279846
22.20 572.735107
22.22 569.758484
22.24 581.523254
22.26 587.11615
22.28 603.019958
22.30 593.621765
22.32 590.071045
22.34 593.791443
22.36 565.783447
22.38 573.747437
22.40 568.219971
22.42 574.672302
22.44 584.000305
22.46 581.380371
22.48 580.30896
22.50 586.27478
22.52 586.388245
22.54 580.370056
22.56 587.003113
22.58 595.49115
22.60 579.353455
22.62 587.437561
22.64 586.798706
22.66 576.857849
22.68 582.468323
22.70 604.47168
22.72 586.591125
22.74 591.929077
22.76 591.463013
22.78 596.886475
22.80 603.363159
22.82 597.638489
22.84 592.82135
22.86 602.384644
22.88 611.713196
22.90 612.457947
22.92 627.790894
22.94 610.131531
22.96 617.013977
22.98 610.505005
23.00 613.774231
23.02 614.209595
23.04 619.570313
23.06 597.854919
23.08 600.174805
23.10 614.79187
23.12 595.674744
23.14 608.189941
23.16 586.190063
23.18 590.019958
23.20 599.768921
23.22 600.018616
23.24 609.974609
23.26 602.896973
23.28 599.052917
23.30 606.717407
23.32 615.802795
23.34 621.702576
23.36 617.718689
23.38 609.300171
23.40 606.554504
23.42 604.066284
23.44 599.02533
23.46 604.813538
23.48 609.648499
23.50 619.726929
23.52 620.336731
23.54 621.164307
23.56 638.784363
23.58 626.28125
23.60 605.612671
23.62 619.57959
23.64 631.709534
23.66 636.332581
23.68 639.788025
23.70 627.852478
23.72 625.078918
23.74 634.792419
23.76 633.256897
23.78 636.055237
23.80 657.732178
23.82 668.08136
23.84 654.881531
23.86 631.484131
23.88 622.701172
23.90 641.624939
23.92 635.264709
23.94 634.636902
23.96 619.463562
23.98 642.864075
24.00 645.39801
24.02 629.163208
24.04 615.557434
24.06 647.108704
24.08 631.307373
24.10 609.469421
24.12 625.522339
24.14 656.813232
24.16 642.998596
24.18 633.812317
24.20 637.434265
24.22 642.834595
24.24 633.45752
24.26 629.082947
24.28 634.759094
24.30 619.166992
24.32 610.113159
24.34 619.639893
24.36 637.153809
24.38 648.297791
24.40 649.425781
24.42 635.618469
24.44 639.23114
24.46 628.755737
24.48 636.673279
24.50 645.912903
24.52 645.136292
24.54 644.809509
24.56 637.151306
24.58 630.219543
24.60 630.473572
24.62 639.654358
24.64 619.660706
24.66 630.757813
24.68 622.470825
24.70 625.93927
24.72 626.58313
24.74 622.286133
24.76 630.645569
24.78 633.381836
24.80 615.737244
24.82 622.36322
24.84 633.721741
24.86 646.075867
24.88 662.00238
24.90 655.117249
24.92 636.125549
24.94 651.881348
24.96 638.545654
24.98 629.13092
25.00 633.098816
25.02 640.958191
25.04 636.002319
25.06 631.584778
25.08 640.484009
25.10 644.717529
25.12 645.77063
25.14 633.465271
25.16 635.372742
25.18 656.805054
25.20 660.165283
25.22 646.083618
25.24 639.694946
25.26 647.821411
25.28 656.532471
25.30 644.082031
25.32 678.650024
25.34 639.744324
25.36 625.252441
25.38 636.616333
25.40 661.65802
25.42 674.806702
25.44 682.052063
25.46 661.858276
25.48 658.402161
25.50 654.919312
25.52 632.926575
25.54 639.215271
25.56 662.876526
25.58 680.149536
25.60 664.715027
25.62 639.041321
25.64 633.867676
25.66 637.554077
25.68 648.009338
25.70 653.680908
25.72 672.119507
25.74 676.004822
25.76 637.282043
25.78 615.922058
25.80 634.111633
25.82 653.345337
25.84 655.350708
25.86 647.673462
25.88 649.202881
25.90 649.142029
25.92 645.628357
25.94 645.348816
25.96 656.333008
25.98 679.337708
26.00 644.845093
26.02 641.489685
26.04 657.174744
26.06 622.889954
26.08 632.562744
26.10 643.056091
26.12 658.458069
26.14 651.084412
26.16 637.848816
26.18 638.780762
26.20 651.788391
26.22 658.125793
26.24 660.410034
26.26 631.928223
26.28 637.317017
26.30 638.490112
26.32 651.27301
26.34 656.144775
26.36 646.871155
26.38 643.523499
26.40 625.568787
26.42 647.676575
26.44 652.583008
26.46 657.74408
26.48 635.788208
26.50 654.904724
26.52 658.552917
26.54 638.677979
26.56 642.552917
26.58 644.206116
26.60 641.05481
26.62 647.489807
26.64 644.077271
26.66 637.957092
26.68 633.013794
26.70 620.787964
26.72 632.527832
26.74 646.179932
26.76 644.263306
26.78 639.40033
26.80 650.483521
26.82 642.092285
26.84 654.341003
26.86 634.940796
26.88 628.543213
26.90 632.312683
26.92 627.745239
26.94 640.995056
26.96 639.189636
26.98 631.674377
27.00 635.483154
27.02 635.091492
27.04 639.424683
27.06 635.001099
27.08 636.33075
27.10 649.999084
27.12 640.539246
27.14 647.418274
27.16 637.373108
27.18 639.665222
27.20 638.844116
27.22 649.826172
27.24 634.144165
27.26 652.96582
27.28 652.613953
27.30 633.497559
27.32 645.787598
27.34 639.175964
27.36 645.079163
27.38 647.105347
27.40 646.577332
27.42 645.408936
27.44 646.592468
27.46 639.130676
27.48 642.068237
27.50 647.218018
27.52 647.269897
27.54 648.243835
27.56 648.600891
27.58 632.808289
27.60 641.954102
27.62 636.28125
27.64 632.182068
27.66 646.755066
27.68 647.827515
27.70 642.606323
27.72 628.66333
27.74 633.705688
27.76 619.481995
27.78 630.131714
27.80 632.278076
27.82 616.79303
27.84 612.056763
27.86 625.573303
27.88 641.009094
27.90 650.556824
27.92 650.759705
27.94 650.712219
27.96 654.157959
27.98 646.170532
28.00 638.733093
28.02 612.739502
28.04 623.615723
28.06 640.281433
28.08 654.759888
28.10 640.640625
28.12 648.727783
28.14 650.542236
28.16 653.574097
28.18 652.861572
28.20 645.658691
28.22 638.88916
28.24 642.48761
28.26 660.934998
28.28 651.38916
28.30 636.075867
28.32 642.065247
28.34 647.322815
28.36 655.329529
28.38 630.167664
28.40 637.502319
28.42 654.276672
28.44 639.197388
28.46 661.124512
28.48 648.728577
28.50 649.177795
28.52 658.567261
28.54 654.925659
28.56 645.011902
28.58 654.505737
28.60 668.190674
28.62 664.064026
28.64 651.660583
28.66 651.892822
28.68 664.314453
28.70 656.995117
28.72 655.004883
28.74 668.086609
28.76 668.536804
28.78 674.309326
28.80 674.612366
28.82 659.499207
28.84 662.552979
28.86 682.501099
28.88 688.173584
28.90 718.177429
28.92 710.650085
28.94 713.868469
28.96 709.417419
28.98 701.132385
29.00 720.033569
29.02 755.8927
29.04 772.857117
29.06 751.504639
29.08 755.604309
29.10 764.946899
29.12 774.401672
29.14 804.444824
29.16 815.516113
29.18 821.222351
29.20 846.737915
29.22 849.439941
29.24 838.488281
29.26 848.52063
29.28 836.933289
29.30 870.340454
29.32 912.832947
29.34 907.614319
29.36 911.580383
29.38 895.491272
29.40 913.04126
29.42 918.918579
29.44 928.208069
29.46 944.163147
29.48 934.648132
29.50 937.147217
29.52 953.867554
29.54 964.480347
29.56 947.614014
29.58 942.083252
29.60 945.496582
29.62 959.674072
29.64 975.455933
29.66 1000.00885
29.68 984.389343
29.70 969.514099
29.72 990.480591
29.74 990.397156
29.76 994.06781
29.78 992.191406
29.80 1014.45929
29.82 1057.289429
29.84 1047.33667
29.86 1048.151611
29.88 1044.307129
29.90 1061.445068
29.92 1081.356934
29.94 1096.512085
29.96 1101.881104
29.98 1123.541626
30.00 1146.691162
30.02 1115.697021
30.04 1106.055664
30.06 1137.359741
30.08 1137.870239
30.10 1154.415527
30.12 1191.697998
30.14 1183.751587
30.16 1192.469482
30.18 1218.693848
30.20 1229.947754
30.22 1226.978882
30.24 1213.422485
30.26 1226.380005
30.28 1217.981201
30.30 1182.965698
30.32 1122.234009
30.34 1141.889038
30.36 1153.231934
30.38 1124.742432
30.40 1100.322754
30.42 1075.651245
30.44 1053.120728
30.46 990.12915
30.48 942.096924
30.50 925.730042
30.52 885.546997
30.54 866.538574
30.56 845.411926
30.58 801.83728
30.60 772.236755
30.62 768.208557
30.64 752.209534
30.66 725.068176
30.68 723.685669
30.70 716.321838
30.72 674.605652
30.74 647.372314
30.76 654.819214
30.78 660.46521
30.80 657.956116
30.82 640.358643
30.84 634.013367
30.86 648.71521
30.88 657.492981
30.90 638.017517
30.92 639.736511
30.94 638.798767
30.96 616.742371
30.98 626.379517
31.00 634.056763
31.02 613.066772
31.04 613.800903
31.06 613.503662
31.08 608.758057
31.10 609.440735
31.12 598.642578
31.14 614.602295
31.16 612.310181
31.18 612.967896
31.20 603.810547
31.22 606.242004
31.24 599.320801
31.26 581.518982
31.28 587.467834
31.30 610.143677
31.32 599.391357
31.34 594.722229
31.36 591.285767
31.38 592.857605
31.40 581.142273
31.42 578.933716
31.44 580.869019
31.46 591.242859
31.48 592.571594
31.50 566.571106
31.52 569.712952
31.54 589.728394
31.56 587.38208
31.58 583.045898
31.60 577.468506
31.62 570.606384
31.64 581.640503
31.66 572.437744
31.68 570.378784
31.70 567.858643
31.72 570.87384
31.74 573.421387
31.76 564.670959
31.78 569.947144
31.80 558.629089
31.82 574.744202
31.84 562.576721
31.86 558.758484
31.88 552.481689
31.90 561.176575
31.92 565.276306
31.94 562.088928
31.96 559.311584
31.98 547.308655
32.00 543.389954
32.02 573.362671
32.04 578.861938
32.06 576.092224
32.08 578.864502
32.10 569.675293
32.12 545.685669
32.14 548.109375
32.16 540.856384
32.18 538.335693
32.20 549.028198
32.22 553.756836
32.24 546.75415
32.26 554.422424
32.28 556.18042
32.30 564.282166
32.32 575.284668
32.34 559.141541
32.36 554.946167
32.38 538.907837
32.40 530.374084
32.42 544.591858
32.44 551.109863
32.46 545.790894
32.48 564.640076
32.50 548.086182
32.52 548.153198
32.54 564.322693
32.56 565.141235
32.58 559.217346
32.60 526.194397
32.62 514.014771
32.64 519.824768
32.66 542.145569
32.68 555.789063
32.70 551.833252
32.72 548.968445
32.74 558.018982
32.76 541.359253
32.78 532.645386
32.80 543.497925
32.82 562.756775
32.84 549.192688
32.86 559.213806
32.88 546.323669
32.90 539.855835
32.92 545.34967
32.94 548.760498
32.96 535.147644
32.98 520.079224
33.00 539.483337
33.02 533.477478
33.04 530.013062
33.06 537.510986
33.08 544.031982
33.10 528.628296
33.12 524.863281
33.14 507.780518
33.16 520.763489
33.18 528.8125
33.20 543.079224
33.22 545.406921
33.24 526.970642
33.26 521.224854
33.28 509.266205
33.30 522.929199
33.32 528.589355
33.34 524.57312
33.36 519.751465
33.38 526.544373
33.40 521.286987
33.42 528.01062
33.44 519.804932
33.46 514.818237
33.48 520.552979
33.50 523.417297
33.52 521.207825
33.54 523.690735
33.56 534.447632
33.58 508.451385
33.60 506.95874
33.62 533.024719
33.64 532.807312
33.66 516.64679
33.68 504.49588
33.70 506.662231
33.72 497.318604
33.74 509.290588
33.76 519.432007
33.78 516.012634
33.80 524.25238
33.82 529.302368
33.84 521.903015
33.86 512.368042
33.88 514.569031
33.90 515.451294
33.92 532.160156
33.94 514.921692
33.96 497.911621
33.98 518.02948
34.00 519.116821
34.02 511.586578
34.04 494.439728
34.06 484.543945
34.08 494.844971
34.10 479.194824
34.12 492.888306
34.14 505.996674
34.16 520.43689
34.18 512.96106
34.20 486.862488
34.22 480.409851
34.24 495.265137
34.26 478.150452
34.28 471.234436
34.30 471.610748
34.32 486.263153
34.34 496.493835
34.36 492.516876
34.38 485.279724
34.40 476.874023
34.42 464.981476
34.44 473.492126
34.46 489.803955
34.48 485.925201
34.50 470.171967
34.52 467.035492
34.54 470.897491
34.56 473.958374
34.58 468.517029
34.60 471.158722
34.62 470.726532
34.64 452.825653
34.66 456.164032
34.68 468.733826
34.70 476.403992
34.72 475.107819
34.74 476.633545
34.76 459.567688
34.78 456.617096
34.80 464.580383
34.82 464.253448
34.84 460.68219
34.86 466.950806
34.88 465.317078
34.90 455.297028
34.92 454.161011
34.94 462.960999
34.96 459.157043
34.98 451.21347
35.00 447.266052
35.02 453.95871
35.04 456.369629
35.06 470.492584
35.08 465.80365
35.10 467.487854
35.12 453.47644
35.14 437.264435
35.16 438.991516
35.18 450.17691
35.20 450.390778
35.22 449.239258
35.24 441.891388
35.26 439.551819
35.28 445.951782
35.30 439.60965
35.32 437.379669
35.34 432.272858
35.36 429.860779
35.38 424.374451
35.40 432.622742
35.42 441.189514
35.44 444.146515
35.46 443.135162
35.48 444.396942
35.50 439.436066
35.52 436.464325
35.54 426.984741
35.56 433.716492
35.58 437.680115
35.60 432.711731
35.62 423.755096
35.64 411.73819
35.66 427.48111
35.68 429.67453
35.70 423.147675
35.72 414.888763
35.74 424.90155
35.76 432.14502
35.78 424.207489
35.80 413.591339
35.82 436.429535
35.84 432.868073
35.86 435.573151
35.88 437.742523
35.90 416.431
35.92 415.322845
35.94 428.980621
35.96 429.456604
35.98 415.650665
36.00 421.676605
36.02 432.033783
36.04 414.340485
36.06 420.752197
36.08 418.194519
36.10 402.902527
36.12 399.755005
36.14 417.200867
36.16 410.234955
36.18 406.345306
36.20 407.974762
36.22 411.1203
36.24 415.656067
36.26 409.465118
36.28 411.553864
36.30 407.300232
36.32 403.749146
36.34 392.291138
36.36 394.764404
36.38 395.986816
36.40 412.208862
36.42 413.347412
36.44 395.419006
36.46 380.954437
36.48 393.291962
36.50 403.047241
36.52 403.20401
36.54 390.632416
36.56 370.969818
36.58 382.095123
36.60 388.445099
36.62 410.29953
36.64 397.105682
36.66 384.495575
36.68 399.643036
36.70 395.851074
36.72 391.382446
36.74 398.896118
36.76 394.313171
36.78 390.205872
36.80 376.418091
36.82 387.576569
36.84 384.757294
36.86 393.546204
36.88 396.763855
36.90 386.863922
36.92 379.788544
36.94 389.303253
36.96 384.59433
36.98 392.205078
37.00 382.67923
37.02 381.714081
37.04 381.021484
37.06 378.697449
37.08 379.155853
37.10 378.227448
37.12 363.53009
37.14 375.697418
37.16 377.698456
37.18 373.128235
37.20 392.743805
37.22 374.902557
37.24 384.858734
37.26 375.82428
37.28 371.176666
37.30 380.954956
37.32 378.14447
37.34 365.6026
37.36 375.23877
37.38 379.02597
37.40 376.005737
37.42 374.404327
37.44 386.291321
37.46 380.19516
37.48 378.525696
37.50 377.134277
37.52 367.089691
37.54 362.144531
37.56 374.431641
37.58 368.18515
37.60 361.650116
37.62 359.565521
37.64 361.259369
37.66 363.855804
37.68 364.515381
37.70 359.062866
37.72 360.005676
37.74 367.052307
37.76 361.270874
37.78 361.678986
37.80 349.875549
37.82 359.70578
37.84 363.344269
37.86 363.37262
37.88 367.803314
37.90 368.674805
37.92 368.936035
37.94 362.548035
37.96 355.020599
37.98 349.966583
38.00 347.982697
38.02 349.275574
38.04 344.078552
38.06 342.680573
38.08 352.41275
38.10 363.780029
38.12 356.320374
38.14 343.458527
38.16 344.678467
38.18 352.173431
38.20 338.53714
38.22 336.580841
38.24 341.747498
38.26 351.642426
38.28 345.239532
38.30 345.768097
38.32 339.608948
38.34 350.04187
38.36 351.413025
38.38 353.301514
38.40 355.224579
38.42 354.341614
38.44 368.365967
38.46 361.208923
38.48 353.053162
38.50 348.430939
38.52 350.329193
38.54 340.248596
38.56 352.231537
38.58 357.689423
38.60 352.786591
38.62 357.987152
38.64 356.929901
38.66 349.948547
38.68 355.289459
38.70 360.686035
38.72 337.588593
38.74 339.995209
38.76 340.068878
38.78 344.859741
38.80 348.823517
38.82 339.356567
38.84 334.231628
38.86 336.169067
38.88 344.816162
38.90 343.115143
38.92 337.962921
38.94 324.341583
38.96 334.252258
38.98 330.810455
39.00 329.01767
39.02 329.745544
39.04 336.041382
39.06 334.95871
39.08 332.869781
39.10 337.024628
39.12 329.850891
39.14 335.671448
39.16 334.282959
39.18 329.957001
39.20 338.168091
39.22 336.604919
39.24 337.473755
39.26 330.224792
39.28 329.402069
39.30 330.650177
39.32 329.917328
39.34 329.94693
39.36 334.954926
39.38 332.554077
39.40 345.520782
39.42 341.272369
39.44 330.264404
39.46 340.899353
39.48 329.381439
39.50 323.823395
39.52 347.030823
39.54 341.833252
39.56 345.154205
39.58 340.718842
39.60 335.588226
39.62 338.368347
39.64 328.254791
39.66 323.488068
39.68 332.752686
39.70 323.928925
39.72 324.027313
39.74 336.074677
39.76 326.036499
39.78 325.799744
39.80 340.058289
39.82 341.607056
39.84 331.789886
39.86 331.358398
39.88 325.784698
39.90 337.333466
39.92 343.551239
39.94 332.245331
39.96 317.541412
39.98 325.932159
40.00 333.621307
