!@!!GADDS PLOTSO FILE: Chi integration type
!@!!Title/SampleName: ML_MAPbX3
!@!!User: NREL
!@!!Site: NREL SERF C211; SN 2510
!@!!Frame: 081022_MLProject_000_013.gfrm
!@!!Wavelengths    1.54184   1.54056   1.54439
!@!!Frame angles: 2Theta: 28.000 Omega: 5.000 Phi: 0.000 Chi: 90.000
!@!!Integration range: 2Theta: 10.000 to 40.000  Gamma: -135.000 to -45.000
!@!!Integration method: bin normalized
!@!N
!@!SS
!@!M
!@!L 0.0 0.0 0.0 0.0
!@!XDegrees
!@!YCounts
10.00 164.52594
10.02 156.281326
10.04 159.463196
10.06 164.87587
10.08 164.778442
10.10 164.584244
10.12 157.446518
10.14 161.34404
10.16 163.03978
10.18 168.323898
10.20 170.191742
10.22 172.480972
10.24 166.189133
10.26 167.056381
10.28 169.848984
10.30 175.633301
10.32 169.276276
10.34 171.341675
10.36 169.834244
10.38 163.3685
10.40 170.666183
10.42 163.859192
10.44 166.100067
10.46 170.276047
10.48 171.46669
10.50 169.075851
10.52 168.588455
10.54 176.975571
10.56 171.204559
10.58 172.231781
10.60 170.280838
10.62 177.806976
10.64 176.207443
10.66 177.229599
10.68 186.913452
10.70 190.281189
10.72 188.252365
10.74 176.246811
10.76 173.769638
10.78 177.605743
10.80 182.527725
10.82 177.238052
10.84 176.904968
10.86 179.266357
10.88 185.0354
10.90 183.418091
10.92 184.800308
10.94 189.356674
10.96 194.747223
10.98 185.55365
11.00 187.831039
11.02 188.125076
11.04 180.797531
11.06 185.968582
11.08 195.975937
11.10 187.508438
11.12 186.546936
11.14 195.27449
11.16 199.37117
11.18 198.691986
11.20 191.190155
11.22 192.771896
11.24 192.904236
11.26 200.589615
11.28 186.952469
11.30 193.857513
11.32 193.039017
11.34 190.855331
11.36 191.882065
11.38 195.944
11.40 192.544739
11.42 201.424271
11.44 207.297318
11.46 201.584747
11.48 200.693024
11.50 203.421829
11.52 207.812744
11.54 206.292328
11.56 201.995117
11.58 201.412994
11.60 191.713745
11.62 195.848709
11.64 199.6147
11.66 210.058929
11.68 206.806824
11.70 207.693054
11.72 207.880875
11.74 201.837997
11.76 203.144562
11.78 210.862793
11.80 214.052841
11.82 216.399506
11.84 212.851761
11.86 216.30275
11.88 214.073593
11.90 215.241104
11.92 216.76619
11.94 209.096039
11.96 217.830078
11.98 214.664459
12.00 207.150696
12.02 206.734329
12.04 209.971405
12.06 221.093109
12.08 222.281906
12.10 230.89592
12.12 230.879105
12.14 224.473816
12.16 229.204422
12.18 219.424515
12.20 226.329361
12.22 225.365768
12.24 223.984741
12.26 232.938477
12.28 223.753296
12.30 228.248428
12.32 228.347366
12.34 240.913361
12.36 244.359802
12.38 234.896484
12.40 230.3461
12.42 243.234924
12.44 247.581955
12.46 243.20549
12.48 246.242279
12.50 245.409546
12.52 246.651688
12.54 247.053436
12.56 243.0952
12.58 249.593475
12.60 256.900238
12.62 258.571655
12.64 255.998016
12.66 254.999969
12.68 250.378815
12.70 247.754944
12.72 251.186188
12.74 252.56958
12.76 249.761459
12.78 242.762222
12.80 245.976288
12.82 246.414017
12.84 239.010971
12.86 240.129715
12.88 248.036987
12.90 237.432831
12.92 236.594894
12.94 232.095367
12.96 235.380936
12.98 245.049393
13.00 249.76889
13.02 243.933914
13.04 246.240204
13.06 246.052719
13.08 240.527893
13.10 241.363068
13.12 245.814514
13.14 237.704712
13.16 232.984467
13.18 241.10701
13.20 249.466019
13.22 247.601105
13.24 241.580322
13.26 239.166306
13.28 239.453659
13.30 243.801071
13.32 244.522385
13.34 246.063858
13.36 246.435303
13.38 244.679947
13.40 246.371399
13.42 241.050186
13.44 240.409073
13.46 242.928467
13.48 243.126099
13.50 246.800629
13.52 249.456467
13.54 250.953247
13.56 244.348083
13.58 248.301575
13.60 252.153214
13.62 243.14386
13.64 247.295731
13.66 242.059296
13.68 250.910843
13.70 249.517868
13.72 255.881851
13.74 263.455811
13.76 263.529968
13.78 260.196716
13.80 258.286926
13.82 251.902039
13.84 255.837418
13.86 255.386307
13.88 267.279327
13.90 272.17215
13.92 272.52066
13.94 265.954559
13.96 266.336823
13.98 273.666504
14.00 277.213257
14.02 283.288849
14.04 288.384399
14.06 280.427063
14.08 280.909393
14.10 288.191895
14.12 291.210999
14.14 305.933929
14.16 306.874664
14.18 304.099915
14.20 313.585754
14.22 325.135803
14.24 334.562439
14.26 346.962799
14.28 354.416534
14.30 358.125977
14.32 362.586395
14.34 382.030609
14.36 399.845581
14.38 406.174164
14.40 417.723419
14.42 442.060364
14.44 450.223633
14.46 457.188385
14.48 470.043335
14.50 488.91391
14.52 512.584412
14.54 529.33606
14.56 542.020447
14.58 551.683655
14.60 575.362793
14.62 587.13678
14.64 596.631165
14.66 615.706726
14.68 624.605713
14.70 630.176086
14.72 664.868469
14.74 669.641968
14.76 682.737854
14.78 692.03949
14.80 707.032593
14.82 722.298706
14.84 727.392212
14.86 748.140747
14.88 754.531433
14.90 757.631531
14.92 763.321411
14.94 747.659241
14.96 737.959595
14.98 733.853088
15.00 712.384033
15.02 690.653687
15.04 669.155823
15.06 628.893433
15.08 610.888428
15.10 580.715637
15.12 553.348694
15.14 524.470276
15.16 497.53894
15.18 463.537506
15.20 446.174164
15.22 428.3815
15.24 402.694672
15.26 385.839233
15.28 379.77478
15.30 349.869598
15.32 346.321381
15.34 346.888275
15.36 335.268463
15.38 325.852051
15.40 326.027161
15.42 322.935181
15.44 318.516632
15.46 317.151184
15.48 309.591888
15.50 308.233856
15.52 299.197296
15.54 289.521545
15.56 290.071869
15.58 292.800812
15.60 287.187347
15.62 300.05014
15.64 302.276367
15.66 293.317963
15.68 293.117767
15.70 285.356537
15.72 287.524109
15.74 286.534973
15.76 285.037842
15.78 288.514435
15.80 298.202118
15.82 292.004425
15.84 283.447815
15.86 288.422791
15.88 296.423798
15.90 296.262085
15.92 280.162964
15.94 284.883026
15.96 292.093628
15.98 291.278107
16.00 284.138763
16.02 277.507263
16.04 280.549896
16.06 292.875031
16.08 295.47644
16.10 295.171417
16.12 304.624146
16.14 302.99173
16.16 293.104004
16.18 292.955811
16.20 295.255524
16.22 290.521301
16.24 284.741272
16.26 282.817963
16.28 282.900665
16.30 284.497345
16.32 289.831055
16.34 286.144958
16.36 296.068054
16.38 294.259521
16.40 300.08429
16.42 295.022125
16.44 295.89743
16.46 292.582275
16.48 295.988007
16.50 298.969971
16.52 293.005188
16.54 299.519226
16.56 298.402832
16.58 290.292328
16.60 301.248993
16.62 306.439789
16.64 312.742828
16.66 308.984955
16.68 301.963226
16.70 306.817108
16.72 312.254303
16.74 311.030029
16.76 301.505829
16.78 304.202667
16.80 309.410126
16.82 315.012207
16.84 307.132996
16.86 305.72641
16.88 303.521179
16.90 302.137695
16.92 301.441864
16.94 305.746857
16.96 306.164917
16.98 307.071808
17.00 310.240906
17.02 318.890411
17.04 318.022186
17.06 314.913971
17.08 308.463776
17.10 314.764832
17.12 308.614746
17.14 305.986298
17.16 310.595947
17.18 312.280975
17.20 308.349701
17.22 309.502869
17.24 313.391541
17.26 316.599915
17.28 315.828156
17.30 316.466095
17.32 321.068665
17.34 316.259918
17.36 315.499634
17.38 320.690308
17.40 326.076355
17.42 328.12915
17.44 334.13913
17.46 328.7901
17.48 317.925659
17.50 323.154297
17.52 330.053528
17.54 324.442902
17.56 317.319031
17.58 326.07196
17.60 331.141205
17.62 333.870728
17.64 336.626617
17.66 333.741608
17.68 335.3125
17.70 332.653046
17.72 332.312439
17.74 328.345032
17.76 330.508972
17.78 336.595123
17.80 339.447021
17.82 338.11792
17.84 338.055115
17.86 329.692993
17.88 332.632294
17.90 336.30426
17.92 337.060181
17.94 341.602081
17.96 334.143097
17.98 329.225128
18.00 335.448273
18.02 338.639893
18.04 340.24823
18.06 342.416901
18.08 347.477631
18.10 351.829315
18.12 347.870636
18.14 347.075317
18.16 340.71286
18.18 344.618622
18.20 351.026245
18.22 352.869476
18.24 347.178436
18.26 343.848297
18.28 345.016846
18.30 350.782043
18.32 342.385376
18.34 347.323425
18.36 355.598633
18.38 349.830597
18.40 350.414917
18.42 351.365356
18.44 347.246948
18.46 344.403595
18.48 352.960632
18.50 359.658478
18.52 356.380402
18.54 356.743256
18.56 358.810516
18.58 355.547424
18.60 358.265961
18.62 354.037659
18.64 362.61499
18.66 364.16629
18.68 364.597534
18.70 362.035461
18.72 369.44751
18.74 369.054138
18.76 361.350739
18.78 362.338959
18.80 364.551392
18.82 367.092529
18.84 365.702423
18.86 369.853485
18.88 365.35791
18.90 362.296265
18.92 374.787476
18.94 371.882965
18.96 369.028564
18.98 366.764954
19.00 366.266541
19.02 373.59906
19.04 372.109161
19.06 372.995209
19.08 371.873932
19.10 376.803864
19.12 377.83667
19.14 380.70932
19.16 382.810669
19.18 384.892914
19.20 383.958435
19.22 380.306061
19.24 383.062561
19.26 382.416656
19.28 381.534607
19.30 381.00119
19.32 388.08313
19.34 383.84671
19.36 383.526093
19.38 390.860229
19.40 392.716248
19.42 401.536621
19.44 399.990753
19.46 390.849152
19.48 386.854736
19.50 396.852722
19.52 397.403473
19.54 403.365051
19.56 398.194641
19.58 396.13916
19.60 402.977112
19.62 399.967621
19.64 402.920166
19.66 407.152893
19.68 401.427734
19.70 401.400482
19.72 409.164551
19.74 408.199677
19.76 409.075653
19.78 408.981079
19.80 405.84021
19.82 404.20636
19.84 411.931427
19.86 410.757629
19.88 412.461914
19.90 409.083618
19.92 411.946991
19.94 408.641663
19.96 412.843658
19.98 415.067657
20.00 411.456024
20.02 417.662628
20.04 421.07901
20.06 420.06366
20.08 420.510986
20.10 427.25235
20.12 429.701385
20.14 425.680176
20.16 416.713776
20.18 425.987823
20.20 436.25589
20.22 435.93045
20.24 434.179077
20.26 434.059021
20.28 435.498718
20.30 435.180634
20.32 435.392029
20.34 439.312134
20.36 440.721466
20.38 438.632629
20.40 442.284912
20.42 438.327454
20.44 436.164948
20.46 440.534546
20.48 445.098053
20.50 446.299438
20.52 446.195801
20.54 438.379578
20.56 436.033844
20.58 449.642181
20.60 463.518799
20.62 458.856262
20.64 461.431976
20.66 456.66153
20.68 449.687195
20.70 455.341492
20.72 457.704468
20.74 462.207977
20.76 467.414642
20.78 472.213135
20.80 469.779846
20.82 470.5271
20.84 474.712585
20.86 477.142151
20.88 478.911499
20.90 475.118622
20.92 473.683533
20.94 458.812469
20.96 465.039886
20.98 472.17569
21.00 479.69696
21.02 480.497101
21.04 473.826904
21.06 476.191803
21.08 465.705414
21.10 472.129272
21.12 480.396149
21.14 493.181763
21.16 482.372742
21.18 477.676056
21.20 478.301178
21.22 486.124664
21.24 487.184723
21.26 484.763733
21.28 484.957916
21.30 484.80661
21.32 485.234711
21.34 481.984344
21.36 492.440765
21.38 490.504639
21.40 489.986145
21.42 489.131104
21.44 496.546692
21.46 493.646271
21.48 494.627075
21.50 503.920654
21.52 499.64679
21.54 489.401306
21.56 493.374084
21.58 506.50119
21.60 501.452637
21.62 486.7146
21.64 490.515869
21.66 495.670135
21.68 502.082367
21.70 499.091522
21.72 496.100739
21.74 497.585144
21.76 494.718567
21.78 503.878052
21.80 509.499634
21.82 500.46286
21.84 495.554077
21.86 501.103302
21.88 503.143585
21.90 502.145233
21.92 502.580536
21.94 505.142822
21.96 508.213654
21.98 495.466034
22.00 504.761139
22.02 497.734802
22.04 502.53064
22.06 504.076294
22.08 502.655121
22.10 503.49054
22.12 494.975006
22.14 499.069427
22.16 505.176392
22.18 507.64856
22.20 512.447815
22.22 518.551514
22.24 522.128723
22.26 513.328308
22.28 517.49823
22.30 518.26947
22.32 525.459412
22.34 531.215576
22.36 517.132629
22.38 514.261841
22.40 513.103333
22.42 506.20224
22.44 509.088898
22.46 514.449951
22.48 517.180847
22.50 517.8396
22.52 521.057678
22.54 520.611145
22.56 522.105225
22.58 519.904541
22.60 525.399841
22.62 528.072388
22.64 522.9104
22.66 525.572937
22.68 534.00531
22.70 524.283203
22.72 521.105591
22.74 532.337097
22.76 525.739441
22.78 531.98053
22.80 541.749146
22.82 534.50946
22.84 522.422974
22.86 527.048523
22.88 532.288757
22.90 535.999268
22.92 549.672974
22.94 547.628784
22.96 539.147705
22.98 539.689148
23.00 540.43689
23.02 534.904053
23.04 541.61261
23.06 540.360657
23.08 543.507324
23.10 552.934937
23.12 537.757507
23.14 532.947998
23.16 529.05249
23.18 531.063904
23.20 534.740906
23.22 535.813293
23.24 547.024719
23.26 540.646301
23.28 531.746887
23.30 538.117432
23.32 550.529053
23.34 553.119141
23.36 547.376831
23.38 545.454285
23.40 550.927917
23.42 543.701721
23.44 542.524109
23.46 546.910095
23.48 540.297913
23.50 540.782166
23.52 544.51593
23.54 552.334106
23.56 554.738708
23.58 545.920715
23.60 549.956726
23.62 550.410583
23.64 546.346375
23.66 547.606873
23.68 543.140686
23.70 548.959229
23.72 559.981628
23.74 563.397949
23.76 557.572388
23.78 557.178528
23.80 556.096375
23.82 559.480591
23.84 555.891968
23.86 544.480225
23.88 553.654236
23.90 561.679138
23.92 559.0672
23.94 567.47699
23.96 558.688782
23.98 559.303833
24.00 565.38446
24.02 560.787354
24.04 554.807495
24.06 566.229126
24.08 562.478027
24.10 559.871887
24.12 559.345276
24.14 566.053284
24.16 561.544495
24.18 560.024109
24.20 562.25946
24.22 564.900208
24.24 573.781677
24.26 572.404236
24.28 560.585693
24.30 559.573669
24.32 559.678101
24.34 562.26947
24.36 567.302612
24.38 568.050537
24.40 565.435242
24.42 567.664124
24.44 573.115295
24.46 566.495056
24.48 564.641052
24.50 567.498047
24.52 573.852783
24.54 574.211426
24.56 571.864868
24.58 572.755066
24.60 568.525574
24.62 563.950867
24.64 558.842651
24.66 566.737549
24.68 565.25531
24.70 566.796936
24.72 573.075378
24.74 574.212463
24.76 569.562317
24.78 564.661499
24.80 559.616943
24.82 561.220337
24.84 563.582703
24.86 568.383179
24.88 571.447632
24.90 571.019226
24.92 575.54187
24.94 574.594116
24.96 568.54248
24.98 569.022827
25.00 567.952942
25.02 575.695129
25.04 567.769714
25.06 567.617371
25.08 575.959595
25.10 576.282898
25.12 576.774963
25.14 569.89502
25.16 564.058655
25.18 566.742249
25.20 572.265747
25.22 577.073853
25.24 573.281311
25.26 572.214966
25.28 574.822205
25.30 570.659729
25.32 576.71814
25.34 565.872681
25.36 566.109802
25.38 574.858459
25.40 580.214172
25.42 581.81366
25.44 582.715637
25.46 576.04126
25.48 578.275818
25.50 575.625549
25.52 570.236389
25.54 577.587402
25.56 588.5672
25.58 586.942017
25.60 581.585999
25.62 576.286987
25.64 567.600464
25.66 573.930359
25.68 580.41925
25.70 579.120667
25.72 585.795471
25.74 586.363281
25.76 574.768799
25.78 567.618591
25.80 574.002625
25.82 580.145874
25.84 578.455383
25.86 576.091492
25.88 577.664368
25.90 582.807495
25.92 580.28009
25.94 581.828552
25.96 586.824524
25.98 587.607971
26.00 576.56897
26.02 575.481873
26.04 580.080933
26.06 576.307251
26.08 581.551636
26.10 577.849182
26.12 577.681274
26.14 578.429871
26.16 577.342957
26.18 574.098938
26.20 579.490967
26.22 577.342712
26.24 582.517334
26.26 581.067444
26.28 578.407471
26.30 574.138245
26.32 578.030457
26.34 580.375427
26.36 576.503784
26.38 572.598755
26.40 574.298218
26.42 574.911804
26.44 579.223755
26.46 582.116943
26.48 572.414856
26.50 570.58844
26.52 576.795593
26.54 575.617126
26.56 572.385986
26.58 567.49115
26.60 570.080322
26.62 580.668945
26.64 579.821228
26.66 581.307495
26.68 571.722839
26.70 569.759705
26.72 576.472412
26.74 586.018738
26.76 588.100342
26.78 577.296021
26.80 571.879395
26.82 579.503418
26.84 580.247986
26.86 571.325256
26.88 565.720825
26.90 570.958313
26.92 576.338562
26.94 582.973145
26.96 581.105286
26.98 575.336121
27.00 576.165344
27.02 575.609802
27.04 578.934509
27.06 574.938171
27.08 570.650879
27.10 577.835815
27.12 582.515686
27.14 579.618591
27.16 574.928467
27.18 569.670776
27.20 580.093384
27.22 585.071655
27.24 578.950623
27.26 582.590454
27.28 577.597046
27.30 573.559631
27.32 577.53717
27.34 576.391663
27.36 573.165283
27.38 572.228271
27.40 574.852722
27.42 565.441528
27.44 569.329468
27.46 572.771423
27.48 570.894592
27.50 571.423157
27.52 573.099548
27.54 576.436157
27.56 572.84082
27.58 572.925781
27.60 575.41748
27.62 577.351929
27.64 574.416992
27.66 573.433655
27.68 576.909668
27.70 581.887268
27.72 577.895691
27.74 571.487183
27.76 570.390198
27.78 571.34613
27.80 570.192322
27.82 567.156494
27.84 569.728638
27.86 570.540588
27.88 578.298218
27.90 575.825195
27.92 569.692017
27.94 571.135864
27.96 569.088257
27.98 569.681702
28.00 572.431946
28.02 573.360229
28.04 568.198792
28.06 570.231018
28.08 574.163757
28.10 572.463013
28.12 569.923218
28.14 566.567383
28.16 573.647461
28.18 575.284912
28.20 571.053467
28.22 570.106567
28.24 568.673889
28.26 578.096802
28.28 576.964355
28.30 571.707458
28.32 566.018555
28.34 569.450073
28.36 574.661377
28.38 566.677368
28.40 570.55249
28.42 575.803528
28.44 571.217651
28.46 574.52533
28.48 569.57428
28.50 575.001282
28.52 581.896912
28.54 576.023132
28.56 580.057129
28.58 577.398438
28.60 578.19519
28.62 570.926636
28.64 572.506165
28.66 566.096313
28.68 567.220886
28.70 564.792419
28.72 566.76123
28.74 564.245422
28.76 574.839417
28.78 572.853333
28.80 576.748962
28.82 578.527222
28.84 577.357788
28.86 575.007629
28.88 571.553528
28.90 582.083862
28.92 580.526001
28.94 582.753967
28.96 580.340881
28.98 577.380249
29.00 581.314758
29.02 586.227905
29.04 590.900146
29.06 590.69635
29.08 592.854492
29.10 597.600586
29.12 607.065552
29.14 605.217529
29.16 603.824219
29.18 606.132629
29.20 614.443665
29.22 608.706116
29.24 605.620544
29.26 612.993591
29.28 608.967651
29.30 615.312988
29.32 621.544006
29.34 623.66864
29.36 631.369263
29.38 625.966614
29.40 626.997314
29.42 630.158875
29.44 631.807861
29.46 634.333862
29.48 629.357117
29.50 636.727417
29.52 642.338806
29.54 641.539978
29.56 630.559692
29.58 629.675415
29.60 632.479797
29.62 632.992126
29.64 637.000671
29.66 640.34375
29.68 635.673523
29.70 637.361877
29.72 646.698669
29.74 642.442017
29.76 642.789551
29.78 646.843811
29.80 641.528503
29.82 655.353882
29.84 654.512817
29.86 654.003052
29.88 652.797363
29.90 658.480408
29.92 661.828857
29.94 669.658569
29.96 660.304749
29.98 668.675659
30.00 675.689331
30.02 660.986084
30.04 654.73822
30.06 662.36322
30.08 663.423462
30.10 669.784058
30.12 684.827515
30.14 682.125061
30.16 677.015137
30.18 694.187805
30.20 688.554504
30.22 681.465698
30.24 680.775574
30.26 682.376221
30.28 686.288269
30.30 674.489929
30.32 658.395813
30.34 658.859558
30.36 658.435486
30.38 658.842773
30.40 648.79541
30.42 649.524109
30.44 644.023376
30.46 633.579529
30.48 620.137573
30.50 616.168762
30.52 600.862305
30.54 598.350769
30.56 594.101685
30.58 577.048706
30.60 572.10791
30.62 574.448303
30.64 570.366943
30.66 562.780701
30.68 558.729614
30.70 552.723206
30.72 545.814941
30.74 539.088196
30.76 534.702332
30.78 538.328918
30.80 542.220398
30.82 537.23584
30.84 540.819275
30.86 545.280029
30.88 541.888733
30.90 529.525574
30.92 532.407471
30.94 531.867065
30.96 521.714417
30.98 521.387817
31.00 523.766846
31.02 524.293823
31.04 525.814148
31.06 522.192749
31.08 516.723206
31.10 519.928528
31.12 515.536255
31.14 517.804077
31.16 515.792297
31.18 510.407318
31.20 511.8237
31.22 517.752502
31.24 520.366943
31.26 516.162354
31.28 512.661255
31.30 509.205688
31.32 510.240082
31.34 509.502655
31.36 506.346954
31.38 504.749176
31.40 507.010529
31.42 502.348175
31.44 503.100616
31.46 512.737244
31.48 509.235748
31.50 496.74527
31.52 500.587097
31.54 504.36853
31.56 498.112793
31.58 494.076538
31.60 498.119171
31.62 502.110352
31.64 508.881714
31.66 504.488678
31.68 496.215973
31.70 490.861389
31.72 494.576019
31.74 501.207581
31.76 494.278046
31.78 493.7258
31.80 493.619141
31.82 497.700623
31.84 494.739349
31.86 500.73938
31.88 496.832245
31.90 491.870239
31.92 496.296082
31.94 503.039673
31.96 497.480835
31.98 491.175201
32.00 492.320007
32.02 495.514069
32.04 494.296936
32.06 493.304443
32.08 494.547821
32.10 500.007751
32.12 489.983856
32.14 494.05423
32.16 485.314545
32.18 483.696808
32.20 488.659912
32.22 496.47229
32.24 495.090027
32.26 498.150879
32.28 496.529633
32.30 491.198608
32.32 496.973419
32.34 501.730865
32.36 500.287628
32.38 494.792755
32.40 485.720459
32.42 489.812897
32.44 496.823456
32.46 492.960571
32.48 496.020081
32.50 490.952087
32.52 492.728668
32.54 499.571472
32.56 500.832947
32.58 500.535004
32.60 488.33551
32.62 480.946289
32.64 488.2229
32.66 496.037964
32.68 497.783722
32.70 497.800385
32.72 497.470001
32.74 496.917023
32.76 493.028503
32.78 490.703491
32.80 492.922882
32.82 501.137543
32.84 497.163147
32.86 497.350372
32.88 498.894104
32.90 496.940308
32.92 494.030121
32.94 500.254883
32.96 502.627991
32.98 494.634766
33.00 500.05719
33.02 493.751709
33.04 496.497345
33.06 498.765411
33.08 500.286194
33.10 495.650787
33.12 490.014191
33.14 488.560974
33.16 489.535461
33.18 491.581879
33.20 495.844879
33.22 496.819702
33.24 496.270996
33.26 497.243927
33.28 496.361023
33.30 501.980011
33.32 502.372528
33.34 506.046661
33.36 504.193115
33.38 503.775513
33.40 496.723389
33.42 498.81076
33.44 502.92453
33.46 503.441895
33.48 507.783142
33.50 505.856781
33.52 504.970734
33.54 510.32254
33.56 507.902252
33.58 501.533661
33.60 497.351166
33.62 501.238892
33.64 500.499176
33.66 498.837128
33.68 495.213348
33.70 502.06488
33.72 501.73291
33.74 502.702087
33.76 506.708069
33.78 504.695282
33.80 497.313751
33.82 505.023987
33.84 498.621399
33.86 495.477905
33.88 497.997498
33.90 499.509491
33.92 508.646973
33.94 501.163269
33.96 495.136139
33.98 498.916168
34.00 493.043152
34.02 490.433075
34.04 489.536469
34.06 481.150024
34.08 482.704163
34.10 481.836182
34.12 480.039124
34.14 482.580048
34.16 484.156738
34.18 483.043427
34.20 473.767151
34.22 474.040985
34.24 472.477173
34.26 467.540344
34.28 462.155182
34.30 461.860443
34.32 458.567841
34.34 461.831665
34.36 458.718567
34.38 455.333313
34.40 456.996796
34.42 452.484589
34.44 446.687714
34.46 445.845123
34.48 442.258942
34.50 446.867126
34.52 446.678375
34.54 440.864868
34.56 437.099182
34.58 438.523834
34.60 439.418671
34.62 434.741486
34.64 427.848419
34.66 425.987244
34.68 431.066437
34.70 437.347656
34.72 441.1922
34.74 435.753693
34.76 426.450531
34.78 429.199585
34.80 427.229309
34.82 420.741455
34.84 421.166809
34.86 424.732422
34.88 419.677216
34.90 418.394409
34.92 422.538422
34.94 425.722809
34.96 422.44281
34.98 417.749268
35.00 411.254456
35.02 413.134186
35.04 414.875031
35.06 415.364807
35.08 417.479706
35.10 415.461578
35.12 408.10434
35.14 413.618469
35.16 414.840454
35.18 408.545654
35.20 405.784302
35.22 403.967346
35.24 405.915253
35.26 412.992035
35.28 409.686676
35.30 406.110901
35.32 408.269897
35.34 403.3237
35.36 398.741211
35.38 400.825439
35.40 401.533875
35.42 403.085907
35.44 403.032074
35.46 395.785095
35.48 399.409027
35.50 399.212372
35.52 399.210632
35.54 396.191406
35.56 400.791748
35.58 402.158539
35.60 399.354279
35.62 396.651184
35.64 390.86322
35.66 394.377808
35.68 394.230164
35.70 393.290741
35.72 384.509705
35.74 389.782227
35.76 401.371124
35.78 395.342224
35.80 388.78241
35.82 390.829681
35.84 393.582001
35.86 394.432343
35.88 395.705261
35.90 388.848114
35.92 380.969391
35.94 389.288727
35.96 391.828827
35.98 388.020142
36.00 394.331085
36.02 395.510834
36.04 391.569733
36.06 382.886993
36.08 387.46814
36.10 383.365784
36.12 384.913757
36.14 386.524628
36.16 381.274811
36.18 386.049652
36.20 385.00766
36.22 379.729645
36.24 381.662933
36.26 375.035248
36.28 377.696075
36.30 380.113098
36.32 374.241608
36.34 373.599915
36.36 377.546051
36.38 377.082855
36.40 377.710968
36.42 381.970337
36.44 371.105469
36.46 367.432007
36.48 370.99942
36.50 379.578064
36.52 379.97229
36.54 370.840668
36.56 364.639587
36.58 370.493011
36.60 365.255707
36.62 370.064362
36.64 372.794708
36.66 371.014404
36.68 370.735352
36.70 371.388824
36.72 372.482727
36.74 379.242096
36.76 376.008301
36.78 366.717407
36.80 360.519226
36.82 366.360046
36.84 370.860352
36.86 364.899414
36.88 365.190399
36.90 361.765961
36.92 365.799805
36.94 366.355682
36.96 363.821289
36.98 365.325806
37.00 363.969727
37.02 363.322968
37.04 361.73587
37.06 361.64978
37.08 363.425415
37.10 361.25119
37.12 358.205933
37.14 356.78537
37.16 356.724304
37.18 356.703278
37.20 361.606445
37.22 358.55188
37.24 359.263519
37.26 358.900024
37.28 359.246765
37.30 354.477112
37.32 352.264709
37.34 347.42514
37.36 352.559113
37.38 354.425995
37.40 356.687225
37.42 358.493225
37.44 358.966431
37.46 357.360138
37.48 349.491638
37.50 347.871979
37.52 346.408234
37.54 345.416077
37.56 348.039734
37.58 347.414948
37.60 344.408295
37.62 340.486786
37.64 341.94046
37.66 347.356659
37.68 347.480835
37.70 342.322937
37.72 339.247253
37.74 342.648193
37.76 340.850739
37.78 341.19696
37.80 337.716217
37.82 339.550903
37.84 344.368958
37.86 339.429626
37.88 338.211456
37.90 338.616241
37.92 343.088898
37.94 335.723663
37.96 335.772919
37.98 334.582855
38.00 331.573822
38.02 323.12384
38.04 319.904633
38.06 321.990692
38.08 327.021515
38.10 329.961243
38.12 327.845062
38.14 324.094971
38.16 324.830811
38.18 325.128052
38.20 322.768829
38.22 320.826508
38.24 320.531555
38.26 321.953217
38.28 324.343689
38.30 322.727142
38.32 318.247375
38.34 326.17749
38.36 328.394165
38.38 335.76236
38.40 329.255035
38.42 325.227936
38.44 328.952911
38.46 325.050812
38.48 323.16687
38.50 318.63678
38.52 318.725159
38.54 316.973724
38.56 315.285065
38.58 321.432953
38.60 315.732178
38.62 315.962097
38.64 319.834351
38.66 323.428864
38.68 319.813782
38.70 320.071136
38.72 315.160797
38.74 319.376221
38.76 319.374512
38.78 315.071594
38.80 321.746216
38.82 317.323822
38.84 316.903473
38.86 313.957336
38.88 314.880066
38.90 314.278809
38.92 308.420074
38.94 306.364044
38.96 311.424103
38.98 312.0224
39.00 313.782257
39.02 309.313049
39.04 313.200348
39.06 311.987274
39.08 306.423828
39.10 307.926636
39.12 301.468231
39.14 310.712921
39.16 307.256317
39.18 301.70993
39.20 307.336121
39.22 310.432068
39.24 312.407471
39.26 305.774506
39.28 307.247284
39.30 307.790771
39.32 302.973175
39.34 304.140472
39.36 310.122162
39.38 307.266174
39.40 320.78952
39.42 316.550171
39.44 304.656738
39.46 311.549194
39.48 308.675354
39.50 303.699799
39.52 307.005402
39.54 306.638885
39.56 307.013367
39.58 309.04837
39.60 306.734833
39.62 303.506134
39.64 295.71701
39.66 299.278931
39.68 300.692596
39.70 295.793274
39.72 294.718323
39.74 304.951752
39.76 301.005798
39.78 303.057129
39.80 302.581268
39.82 304.309387
39.84 300.966675
39.86 299.786041
39.88 301.311859
39.90 302.341003
39.92 299.468536
39.94 298.654999
39.96 292.688385
39.98 293.611633
40.00 297.991364
