!@!!GADDS PLOTSO FILE: Chi integration type
!@!!Title/SampleName: ML_MAPbX3_chem6
!@!!User: NREL
!@!!Site: NREL SERF C211; SN 2510
!@!!Frame: 081022_MLProject_000_009.gfrm
!@!!Wavelengths    1.54184   1.54056   1.54439
!@!!Frame angles: 2Theta: 28.000 Omega: 5.000 Phi: 0.000 Chi: 90.000
!@!!Integration range: 2Theta: 10.000 to 40.000  Gamma: -135.000 to -110.000
!@!!Integration method: bin normalized
!@!N
!@!SS
!@!M
!@!L 0.0 0.0 0.0 0.0
!@!XDegrees
!@!YCounts
10.00 130.240601
10.02 152.784988
10.04 134.246826
10.06 136.731247
10.08 133.01355
10.10 131.074905
10.12 135.65947
10.14 125.078079
10.16 121.538231
10.18 131.973526
10.20 149.250031
10.22 149.089935
10.24 145.047195
10.26 138.593704
10.28 136.791901
10.30 136.969437
10.32 138.995087
10.34 148.884903
10.36 149.751282
10.38 151.981262
10.40 164.081039
10.42 172.184235
10.44 155.896194
10.46 164.002823
10.48 160.078751
10.50 166.780548
10.52 155.317001
10.54 169.699387
10.56 171.56781
10.58 164.161179
10.60 161.524094
10.62 152.526886
10.64 148.275009
10.66 150.243652
10.68 151.077896
10.70 169.988739
10.72 170.597031
10.74 164.864731
10.76 174.19931
10.78 161.769211
10.80 168.93399
10.82 169.473633
10.84 167.250641
10.86 158.071182
10.88 169.434921
10.90 163.312836
10.92 158.661026
10.94 158.230194
10.96 177.785965
10.98 177.247147
11.00 185.298584
11.02 175.777145
11.04 168.193695
11.06 162.852936
11.08 158.993896
11.10 164.868973
11.12 173.888153
11.14 184.562561
11.16 183.648315
11.18 182.962692
11.20 194.664658
11.22 188.626816
11.24 188.775497
11.26 183.679703
11.28 175.328506
11.30 178.103958
11.32 176.371246
11.34 181.372559
11.36 187.132385
11.38 194.495346
11.40 203.824509
11.42 198.259415
11.44 182.687332
11.46 187.804459
11.48 195.432449
11.50 195.192307
11.52 191.433975
11.54 193.595169
11.56 184.019455
11.58 188.187088
11.60 203.703995
11.62 210.725601
11.64 205.090515
11.66 206.733505
11.68 201.166718
11.70 183.582001
11.72 179.379684
11.74 202.112274
11.76 209.626785
11.78 214.337952
11.80 194.259506
11.82 189.353928
11.84 202.28035
11.86 212.554459
11.88 216.503494
11.90 217.509308
11.92 214.695938
11.94 205.980881
11.96 208.691284
11.98 198.389389
12.00 206.473709
12.02 215.691818
12.04 200.130417
12.06 199.482498
12.08 205.430313
12.10 217.276459
12.12 215.573196
12.14 216.846924
12.16 210.708038
12.18 227.339783
12.20 220.185608
12.22 233.477921
12.24 231.940948
12.26 215.833511
12.28 215.120636
12.30 219.270401
12.32 205.143677
12.34 214.005814
12.36 239.481781
12.38 225.956299
12.40 217.793015
12.42 231.450806
12.44 248.679947
12.46 235.111938
12.48 239.270065
12.50 246.387619
12.52 253.179749
12.54 222.969254
12.56 214.874466
12.58 218.918793
12.60 222.289169
12.62 226.26947
12.64 223.803391
12.66 231.263367
12.68 239.183167
12.70 246.696106
12.72 229.434326
12.74 211.715088
12.76 238.96312
12.78 236.982224
12.80 243.69075
12.82 241.735413
12.84 233.910934
12.86 237.308975
12.88 233.565765
12.90 242.320557
12.92 229.002701
12.94 221.379898
12.96 225.387177
12.98 225.951538
13.00 230.292862
13.02 238.71022
13.04 243.632187
13.06 244.882706
13.08 227.66597
13.10 229.147568
13.12 215.317062
13.14 216.934189
13.16 238.719162
13.18 232.712646
13.20 244.609161
13.22 246.650833
13.24 238.041183
13.26 234.361496
13.28 221.249329
13.30 241.412109
13.32 254.785126
13.34 239.035843
13.36 240.368561
13.38 248.753311
13.40 239.491119
13.42 227.046585
13.44 214.715881
13.46 229.721054
13.48 244.711502
13.50 222.802307
13.52 225.829254
13.54 238.783936
13.56 245.392181
13.58 243.079239
13.60 237.918365
13.62 238.726105
13.64 237.99678
13.66 235.830704
13.68 247.048248
13.70 255.122162
13.72 247.203476
13.74 239.463974
13.76 242.400848
13.78 241.910477
13.80 232.181198
13.82 240.45369
13.84 262.298279
13.86 258.923248
13.88 267.235718
13.90 260.726746
13.92 254.383423
13.94 255.959305
13.96 257.616852
13.98 259.070007
14.00 250.394424
14.02 250.658737
14.04 248.695679
14.06 249.698181
14.08 246.916061
14.10 246.152451
14.12 245.4095
14.14 247.296036
14.16 251.359741
14.18 265.452148
14.20 250.98262
14.22 245.300903
14.24 243.030533
14.26 251.444412
14.28 260.122406
14.30 261.789063
14.32 254.780777
14.34 265.120026
14.36 275.704803
14.38 251.542679
14.40 265.987091
14.42 268.499878
14.44 270.651123
14.46 264.941406
14.48 276.44809
14.50 262.64386
14.52 258.990143
14.54 264.163208
14.56 272.47464
14.58 277.053192
14.60 272.642914
14.62 271.662567
14.64 274.306549
14.66 280.634735
14.68 300.14975
14.70 302.304535
14.72 297.841766
14.74 293.925903
14.76 298.605042
14.78 289.79361
14.80 306.026917
14.82 307.645416
14.84 289.167175
14.86 310.0336
14.88 326.596741
14.90 317.866699
14.92 314.935852
14.94 304.775604
14.96 305.178925
14.98 316.515045
15.00 305.325287
15.02 311.338043
15.04 310.405609
15.06 320.838867
15.08 329.934631
15.10 332.008514
15.12 338.669373
15.14 345.602478
15.16 321.860565
15.18 330.480316
15.20 332.268524
15.22 322.467896
15.24 326.173401
15.26 327.872192
15.28 322.209808
15.30 309.655975
15.32 305.408112
15.34 307.078857
15.36 325.974731
15.38 313.055695
15.40 298.049835
15.42 310.008789
15.44 313.044891
15.46 307.746185
15.48 303.246521
15.50 287.089783
15.52 280.306061
15.54 298.516815
15.56 301.714325
15.58 294.102539
15.60 304.770233
15.62 306.369293
15.64 307.980072
15.66 289.631989
15.68 296.347351
15.70 316.195374
15.72 315.252197
15.74 298.208069
15.76 301.303375
15.78 306.786621
15.80 313.47821
15.82 311.28421
15.84 295.632477
15.86 286.198792
15.88 288.556976
15.90 281.747894
15.92 278.130798
15.94 280.54776
15.96 279.429108
15.98 292.646515
16.00 284.519257
16.02 291.681976
16.04 303.836426
16.06 289.811279
16.08 277.394592
16.10 286.471863
16.12 308.368561
16.14 293.625885
16.16 290.36264
16.18 281.086578
16.20 298.25293
16.22 296.21463
16.24 312.287842
16.26 307.438568
16.28 285.944458
16.30 308.017212
16.32 310.274811
16.34 301.671661
16.36 301.158234
16.38 291.377045
16.40 294.038391
16.42 300.604279
16.44 291.495941
16.46 288.942566
16.48 309.684479
16.50 307.437653
16.52 304.759583
16.54 316.711578
16.56 311.295837
16.58 295.513885
16.60 281.078247
16.62 284.316193
16.64 291.631165
16.66 284.783295
16.68 293.19342
16.70 302.105103
16.72 308.628601
16.74 316.259399
16.76 315.468567
16.78 312.956238
16.80 300.738586
16.82 303.744812
16.84 319.613708
16.86 304.913147
16.88 309.516144
16.90 312.569519
16.92 342.763031
16.94 331.726349
16.96 325.130005
16.98 307.148285
17.00 315.769073
17.02 316.736176
17.04 304.735718
17.06 309.204437
17.08 308.182831
17.10 311.048706
17.12 320.037689
17.14 321.696716
17.16 329.6297
17.18 335.366821
17.20 330.145782
17.22 318.051575
17.24 318.161713
17.26 324.7771
17.28 337.934662
17.30 321.291992
17.32 341.593475
17.34 338.174683
17.36 332.512665
17.38 326.960022
17.40 313.648193
17.42 317.95636
17.44 320.48465
17.46 333.249664
17.48 331.56955
17.50 331.731842
17.52 319.318207
17.54 329.077576
17.56 337.338318
17.58 329.872864
17.60 323.548981
17.62 323.996063
17.64 347.536499
17.66 351.168762
17.68 337.090302
17.70 327.070831
17.72 341.409546
17.74 335.725189
17.76 338.179962
17.78 338.607025
17.80 347.070221
17.82 347.846313
17.84 343.953461
17.86 333.287537
17.88 327.596313
17.90 335.39566
17.92 337.179565
17.94 335.092926
17.96 351.047852
17.98 338.516937
18.00 340.472412
18.02 348.114532
18.04 362.90329
18.06 358.877441
18.08 361.849182
18.10 364.672821
18.12 347.983643
18.14 358.041504
18.16 365.513428
18.18 358.279114
18.20 355.287811
18.22 352.312378
18.24 355.568176
18.26 353.514069
18.28 353.903778
18.30 355.963776
18.32 359.746979
18.34 369.303986
18.36 367.78717
18.38 362.03656
18.40 351.544708
18.42 357.885651
18.44 353.866241
18.46 356.051697
18.48 384.093689
18.50 382.080231
18.52 362.032227
18.54 360.212555
18.56 368.097809
18.58 390.13028
18.60 377.923035
18.62 366.055206
18.64 364.957916
18.66 366.164185
18.68 369.146057
18.70 377.942413
18.72 381.457458
18.74 382.950287
18.76 387.422028
18.78 390.882965
18.80 380.041565
18.82 365.858521
18.84 372.079865
18.86 370.712524
18.88 381.049133
18.90 385.218109
18.92 378.201965
18.94 383.790863
18.96 391.188629
18.98 386.779327
19.00 373.060577
19.02 365.34375
19.04 385.928528
19.06 385.826416
19.08 400.357635
19.10 387.53006
19.12 397.219788
19.14 388.671448
19.16 395.872803
19.18 395.621094
19.20 393.579224
19.22 398.559814
19.24 391.732635
19.26 390.638641
19.28 392.181702
19.30 406.530945
19.32 393.47879
19.34 405.055847
19.36 407.022522
19.38 406.629639
19.40 396.94342
19.42 391.880341
19.44 384.688873
19.46 398.430756
19.48 417.550781
19.50 411.611877
19.52 392.472931
19.54 403.283203
19.56 405.774231
19.58 415.169891
19.60 401.491547
19.62 390.192444
19.64 413.415222
19.66 404.574951
19.68 395.415833
19.70 403.604919
19.72 399.332184
19.74 406.379425
19.76 407.214722
19.78 403.459778
19.80 403.667694
19.82 414.487091
19.84 407.604584
19.86 409.483185
19.88 415.919403
19.90 431.738251
19.92 429.577789
19.94 425.630524
19.96 419.440521
19.98 423.027954
20.00 433.412964
20.02 433.301147
20.04 425.955353
20.06 423.432404
20.08 411.754608
20.10 408.096436
20.12 424.483917
20.14 431.059479
20.16 436.301208
20.18 438.901825
20.20 430.714203
20.22 425.619019
20.24 422.347931
20.26 454.090027
20.28 466.731628
20.30 446.044159
20.32 421.97702
20.34 436.573975
20.36 455.182129
20.38 446.517517
20.40 434.598724
20.42 441.667511
20.44 438.140564
20.46 442.912781
20.48 442.860901
20.50 438.582123
20.52 443.362244
20.54 443.717621
20.56 432.280853
20.58 446.847046
20.60 430.988861
20.62 459.819977
20.64 461.67157
20.66 454.019135
20.68 460.915649
20.70 471.528717
20.72 473.207672
20.74 452.720612
20.76 445.219086
20.78 447.850403
20.80 472.876434
20.82 478.804688
20.84 461.479797
20.86 456.847107
20.88 468.60965
20.90 475.57785
20.92 477.212128
20.94 476.043701
20.96 479.811737
20.98 484.584656
21.00 490.574005
21.02 485.495056
21.04 485.452637
21.06 482.136627
21.08 485.625946
21.10 500.994995
21.12 494.349396
21.14 488.415253
21.16 499.454559
21.18 512.926025
21.20 505.295349
21.22 494.345459
21.24 494.412262
21.26 502.673187
21.28 514.120728
21.30 537.070496
21.32 535.131104
21.34 518.438171
21.36 525.604736
21.38 523.283081
21.40 531.437256
21.42 521.008911
21.44 520.192139
21.46 536.341248
21.48 540.30249
21.50 536.846924
21.52 519.526917
21.54 522.884521
21.56 519.536682
21.58 526.102539
21.60 545.735168
21.62 538.053101
21.64 533.104553
21.66 511.663971
21.68 525.81897
21.70 540.485229
21.72 522.355774
21.74 510.763123
21.76 507.197174
21.78 504.541199
21.80 507.157898
21.82 513.02063
21.84 515.369202
21.86 521.805542
21.88 533.139343
21.90 524.148621
21.92 510.802063
21.94 516.206055
21.96 519.288147
21.98 518.667847
22.00 532.841187
22.02 533.40741
22.04 530.006409
22.06 519.284668
22.08 525.254028
22.10 519.83252
22.12 517.137878
22.14 511.645447
22.16 506.142761
22.18 514.551086
22.20 506.331696
22.22 512.292908
22.24 519.172546
22.26 510.761597
22.28 513.285767
22.30 524.807251
22.32 525.722656
22.34 530.791199
22.36 542.936218
22.38 520.791687
22.40 515.657837
22.42 529.807556
22.44 535.048035
22.46 518.32196
22.48 529.608398
22.50 538.468323
22.52 529.256897
22.54 534.518616
22.56 529.768555
22.58 532.319275
22.60 531.337341
22.62 529.162354
22.64 531.780884
22.66 544.904236
22.68 564.525757
22.70 546.202637
22.72 528.666931
22.74 524.284668
22.76 552.084045
22.78 561.216309
22.80 538.808716
22.82 547.144226
22.84 544.477112
22.86 538.576843
22.88 534.638123
22.90 518.455627
22.92 531.869263
22.94 556.877808
22.96 551.916687
22.98 557.054077
23.00 555.991455
23.02 555.821594
23.04 539.919556
23.06 541.511353
23.08 536.778931
23.10 538.685852
23.12 547.709351
23.14 538.675537
23.16 533.268921
23.18 535.522034
23.20 543.776306
23.22 567.38147
23.24 565.976318
23.26 555.931885
23.28 557.6073
23.30 551.325867
23.32 535.929749
23.34 547.681763
23.36 555.079285
23.38 563.00415
23.40 568.121033
23.42 556.71228
23.44 559.610046
23.46 551.137817
23.48 563.936646
23.50 560.153503
23.52 563.968933
23.54 565.94928
23.56 562.537109
23.58 553.777283
23.60 552.168945
23.62 548.504822
23.64 550.282593
23.66 566.983398
23.68 572.2453
23.70 559.055298
23.72 570.648376
23.74 575.497192
23.76 565.701904
23.78 548.24115
23.80 560.602173
23.82 563.234436
23.84 554.568726
23.86 565.740906
23.88 569.906738
23.90 579.839111
23.92 566.698914
23.94 566.893677
23.96 568.743225
23.98 559.427124
24.00 552.228455
24.02 563.96637
24.04 559.109131
24.06 569.414856
24.08 552.575012
24.10 555.79718
24.12 568.706482
24.14 551.309753
24.16 544.14386
24.18 564.628052
24.20 571.759094
24.22 565.018311
24.24 566.786682
24.26 563.80426
24.28 557.744934
24.30 551.559998
24.32 558.841858
24.34 566.477478
24.36 559.095581
24.38 549.952148
24.40 560.24762
24.42 571.78241
24.44 559.642944
24.46 571.34021
24.48 582.502075
24.50 580.548828
24.52 566.780823
24.54 579.527161
24.56 595.659851
24.58 570.389343
24.60 561.514832
24.62 563.41748
24.64 569.42395
24.66 577.85437
24.68 575.072083
24.70 575.94574
24.72 578.121094
24.74 586.213745
24.76 571.003113
24.78 558.827209
24.80 547.396606
24.82 553.829041
24.84 578.386108
24.86 578.499512
24.88 560.550842
24.90 566.734009
24.92 567.057251
24.94 570.580017
24.96 579.453064
24.98 583.934509
25.00 577.297913
25.02 579.260437
25.04 573.830261
25.06 568.648926
25.08 572.841858
25.10 571.017944
25.12 568.91571
25.14 568.909485
25.16 571.788391
25.18 577.003418
25.20 582.447021
25.22 585.985474
25.24 569.902527
25.26 583.889648
25.28 574.784973
25.30 570.845886
25.32 573.550171
25.34 579.687378
25.36 584.58136
25.38 584.17865
25.40 597.992004
25.42 586.249817
25.44 577.530518
25.46 584.135437
25.48 574.058594
25.50 593.175781
25.52 586.814575
25.54 568.405945
25.56 548.857849
25.58 573.621582
25.60 568.268127
25.62 559.410095
25.64 567.128296
25.66 577.250549
25.68 573.349792
25.70 570.956299
25.72 575.205017
25.74 570.531006
25.76 575.341187
25.78 573.114807
25.80 580.517944
25.82 581.348328
25.84 581.279785
25.86 589.214783
25.88 599.426819
25.90 572.034668
25.92 573.624329
25.94 580.986389
25.96 584.712097
25.98 579.657715
26.00 590.309937
26.02 581.608704
26.04 583.020203
26.06 572.651062
26.08 563.300354
26.10 562.965454
26.12 569.853516
26.14 586.305847
26.16 582.661682
26.18 581.782898
26.20 586.406799
26.22 577.500183
26.24 587.248352
26.26 590.402588
26.28 584.654175
26.30 582.413818
26.32 567.328491
26.34 555.830505
26.36 578.566528
26.38 596.613831
26.40 575.777405
26.42 568.599365
26.44 581.22998
26.46 586.782776
26.48 589.672424
26.50 586.059753
26.52 579.64978
26.54 578.602722
26.56 580.442627
26.58 571.00592
26.60 559.090149
26.62 566.667053
26.64 578.444092
26.66 592.386169
26.68 582.944397
26.70 583.247864
26.72 573.318298
26.74 587.360046
26.76 588.814209
26.78 591.60675
26.80 583.265076
26.82 583.794983
26.84 561.398132
26.86 568.645996
26.88 575.416443
26.90 583.017151
26.92 569.028076
26.94 575.072266
26.96 572.451721
26.98 579.471863
27.00 564.16095
27.02 564.400879
27.04 556.13269
27.06 563.575806
27.08 568.342346
27.10 568.302551
27.12 584.712952
27.14 585.426086
27.16 589.363892
27.18 577.281189
27.20 559.617554
27.22 555.12439
27.24 572.947021
27.26 580.613281
27.28 585.36261
27.30 571.576965
27.32 574.419739
27.34 582.159912
27.36 558.813843
27.38 574.048035
27.40 572.117615
27.42 563.274231
27.44 580.481567
27.46 572.02771
27.48 563.190552
27.50 559.949463
27.52 556.693298
27.54 584.127441
27.56 579.616699
27.58 564.63501
27.60 571.210388
27.62 572.964966
27.64 566.542725
27.66 575.598755
27.68 581.402893
27.70 571.146606
27.72 567.451355
27.74 559.775146
27.76 564.984192
27.78 581.688965
27.80 581.513062
27.82 575.585449
27.84 579.561157
27.86 577.741943
27.88 575.853455
27.90 565.722229
27.92 557.078979
27.94 568.455566
27.96 571.762878
27.98 556.914307
28.00 560.781311
28.02 560.790161
28.04 555.105957
28.06 564.729309
28.08 566.428589
28.10 561.866699
28.12 574.896851
28.14 586.188049
28.16 567.544922
28.18 567.254639
28.20 561.070374
28.22 563.304993
28.24 546.77655
28.26 547.307312
28.28 554.997925
28.30 560.176575
28.32 561.797852
28.34 561.205383
28.36 559.487549
28.38 549.244873
28.40 568.137085
28.42 568.364319
28.44 562.519958
28.46 566.296631
28.48 556.76355
28.50 564.111023
28.52 553.786194
28.54 550.232544
28.56 567.032898
28.58 579.342163
28.60 562.355652
28.62 552.818176
28.64 555.011108
28.66 567.001709
28.68 558.594666
28.70 556.740417
28.72 556.690552
28.74 554.017151
28.76 527.398132
28.78 530.466736
28.80 538.876587
28.82 568.181702
28.84 572.66748
28.86 568.430237
28.88 559.061829
28.90 548.592468
28.92 544.718811
28.94 554.55249
28.96 563.895752
28.98 562.298523
29.00 543.767639
29.02 540.805481
29.04 548.52594
29.06 547.735107
29.08 557.702148
29.10 548.420715
29.12 535.545166
29.14 545.465332
29.16 542.727234
29.18 537.900391
29.20 543.82605
29.22 556.441956
29.24 562.900574
29.26 550.194824
29.28 537.718445
29.30 550.818237
29.32 557.667847
29.34 549.541382
29.36 554.684875
29.38 555.703064
29.40 547.049316
29.42 548.299561
29.44 546.985718
29.46 548.133545
29.48 559.954285
29.50 549.735596
29.52 538.013062
29.54 542.061523
29.56 540.85199
29.58 536.456177
29.60 551.303528
29.62 544.265991
29.64 530.530518
29.66 521.140198
29.68 528.151672
29.70 539.441895
29.72 540.751892
29.74 542.090027
29.76 541.117249
29.78 534.431091
29.80 542.682678
29.82 548.047546
29.84 533.223022
29.86 537.247803
29.88 534.80365
29.90 541.508606
29.92 552.378113
29.94 532.999023
29.96 525.085205
29.98 527.626526
30.00 546.963257
30.02 546.364807
30.04 541.288208
30.06 551.038757
30.08 537.922668
30.10 529.380188
30.12 527.594055
30.14 531.376526
30.16 531.132324
30.18 531.754822
30.20 536.873291
30.22 547.332703
30.24 553.374451
30.26 560.816345
30.28 538.188232
30.30 537.586975
30.32 553.293945
30.34 561.273499
30.36 567.988403
30.38 546.771118
30.40 530.975708
30.42 539.834595
30.44 547.455872
30.46 551.744141
30.48 554.231323
30.50 550.6922
30.52 540.955688
30.54 538.968201
30.56 553.748474
30.58 569.945557
30.60 551.38269
30.62 530.40686
30.64 547.088318
30.66 545.055298
30.68 527.613892
30.70 526.874695
30.72 532.845215
30.74 521.173889
30.76 534.447449
30.78 528.410522
30.80 521.630859
30.82 520.952026
30.84 521.76355
30.86 520.22168
30.88 528.51355
30.90 507.358734
30.92 495.832001
30.94 507.393951
30.96 522.130432
30.98 522.125488
31.00 507.907654
31.02 506.565887
31.04 499.249146
31.06 506.965302
31.08 507.780304
31.10 503.382141
31.12 496.481873
31.14 507.598663
31.16 510.414032
31.18 494.962402
31.20 486.845978
31.22 486.796265
31.24 494.753204
31.26 485.658569
31.28 494.994659
31.30 486.854248
31.32 482.461884
31.34 470.797424
31.36 472.072723
31.38 478.512909
31.40 483.450714
31.42 499.433899
31.44 483.288513
31.46 479.457825
31.48 476.320129
31.50 489.030762
31.52 489.879425
31.54 475.990417
31.56 476.587524
31.58 470.615173
31.60 463.765045
31.62 454.272491
31.64 451.538727
31.66 468.198029
31.68 468.622833
31.70 483.322205
31.72 474.933502
31.74 468.468994
31.76 472.014282
31.78 464.882324
31.80 454.622894
31.82 456.96637
31.84 447.685272
31.86 458.476349
31.88 463.771332
31.90 469.623047
31.92 460.986237
31.94 454.457886
31.96 453.519989
31.98 449.269287
32.00 456.303528
32.02 466.527313
32.04 464.061737
32.06 455.12796
32.08 456.995453
32.10 467.512268
32.12 455.521057
32.14 439.320374
32.16 458.643311
32.18 472.024261
32.20 462.455353
32.22 456.559326
32.24 457.426147
32.26 450.215881
32.28 456.113525
32.30 447.325226
32.32 448.654114
32.34 440.676361
32.36 453.932556
32.38 458.018982
32.40 458.554443
32.42 440.499023
32.44 452.198547
32.46 459.780762
32.48 455.917236
32.50 461.415619
32.52 446.738068
32.54 448.863983
32.56 448.606659
32.58 443.751221
32.60 450.179016
32.62 447.610443
32.64 453.520538
32.66 455.649445
32.68 458.124115
32.70 457.228699
32.72 460.864044
32.74 461.38327
32.76 467.343384
32.78 456.126221
32.80 461.172607
32.82 471.800873
32.84 469.322327
32.86 474.303772
32.88 462.306549
32.90 456.105591
32.92 453.268738
32.94 444.92514
32.96 438.219086
32.98 447.402405
33.00 440.69574
33.02 446.107605
33.04 457.283905
33.06 458.537903
33.08 456.143585
33.10 446.7995
33.12 447.986511
33.14 444.115173
33.16 437.624481
33.18 445.376556
33.20 438.931549
33.22 460.179321
33.24 464.802979
33.26 456.10199
33.28 448.879181
33.30 451.527863
33.32 439.71167
33.34 429.801422
33.36 427.963287
33.38 443.275421
33.40 436.812988
33.42 436.848511
33.44 439.743439
33.46 454.766174
33.48 450.119873
33.50 439.472473
33.52 436.87323
33.54 443.316284
33.56 454.561096
33.58 454.894104
33.60 450.851501
33.62 445.825989
33.64 432.269409
33.66 436.029572
33.68 431.724335
33.70 447.137451
33.72 456.638
33.74 451.683533
33.76 449.420441
33.78 453.599518
33.80 441.754395
33.82 444.124329
33.84 449.152435
33.86 446.551453
33.88 449.166046
33.90 443.03125
33.92 443.508698
33.94 446.230438
33.96 447.982239
33.98 460.615234
34.00 458.162781
34.02 465.636017
34.04 470.230896
34.06 461.108582
34.08 451.517975
34.10 462.797455
34.12 464.42099
34.14 472.05481
34.16 475.514252
34.18 464.136719
34.20 455.267029
34.22 479.298309
34.24 479.929993
34.26 469.78894
34.28 475.374207
34.30 484.572021
34.32 477.038757
34.34 478.976044
34.36 484.352448
34.38 483.840271
34.40 479.409912
34.42 476.630035
34.44 474.081177
34.46 475.999847
34.48 465.026062
34.50 470.271271
34.52 466.254547
34.54 461.491425
34.56 463.019531
34.58 473.810242
34.60 463.640839
34.62 452.990997
34.64 443.952271
34.66 450.140259
34.68 460.473969
34.70 454.190063
34.72 440.381073
34.74 434.696411
34.76 434.184143
34.78 434.820038
34.80 427.053772
34.82 420.863312
34.84 429.783783
34.86 414.782715
34.88 410.408813
34.90 424.098022
34.92 432.427612
34.94 420.698486
34.96 424.994324
34.98 404.701721
35.00 410.739197
35.02 401.096191
35.04 402.181976
35.06 418.564484
35.08 420.325562
35.10 409.866913
35.12 408.220734
35.14 399.69397
35.16 398.066864
35.18 399.923859
35.20 405.497437
35.22 405.793213
35.24 390.626434
35.26 384.644104
35.28 395.238007
35.30 387.200287
35.32 373.861786
35.34 372.515442
35.36 379.726746
35.38 390.075958
35.40 389.240814
35.42 389.351135
35.44 379.817261
35.46 383.787659
35.48 389.619171
35.50 393.544495
35.52 399.152374
35.54 380.736877
35.56 380.923248
35.58 389.185455
35.60 378.683533
35.62 379.395203
35.64 389.231079
35.66 381.572662
35.68 382.051025
35.70 392.675232
35.72 399.128784
35.74 379.121643
35.76 369.983887
35.78 366.376282
35.80 376.409821
35.82 383.548737
35.84 367.459534
35.86 359.092133
35.88 363.566437
35.90 374.01413
35.92 385.593292
35.94 382.942352
35.96 379.55072
35.98 377.02359
36.00 369.033508
36.02 375.368835
36.04 382.047913
36.06 367.477692
36.08 355.674591
36.10 362.480988
36.12 365.512115
36.14 368.329407
36.16 365.939301
36.18 364.129486
36.20 353.979584
36.22 359.172241
36.24 362.103027
36.26 370.419464
36.28 366.090332
36.30 358.516541
36.32 358.101044
36.34 365.939758
36.36 368.034149
36.38 350.199921
36.40 350.761383
36.42 359.808655
36.44 349.586914
36.46 354.289398
36.48 364.480896
36.50 366.158203
36.52 358.867004
36.54 358.209747
36.56 347.550659
36.58 350.905914
36.60 355.815063
36.62 351.425323
36.64 338.361298
36.66 337.033875
36.68 344.020294
36.70 344.123535
36.72 351.755554
36.74 353.686981
36.76 349.149292
36.78 341.210083
36.80 346.822235
36.82 345.224152
36.84 343.838318
36.86 354.569672
36.88 346.606415
36.90 344.745178
36.92 359.569275
36.94 368.026978
36.96 358.710052
36.98 347.566315
37.00 350.417206
37.02 348.94043
37.04 342.558014
37.06 342.299377
37.08 346.968384
37.10 347.991211
37.12 341.129913
37.14 341.631348
37.16 329.573212
37.18 337.174683
37.20 343.691772
37.22 347.231995
37.24 359.375824
37.26 356.396912
37.28 348.199829
37.30 350.34317
37.32 356.911591
37.34 335.970306
37.36 335.000061
37.38 345.793152
37.40 348.155243
37.42 329.924286
37.44 336.900848
37.46 339.738312
37.48 344.226288
37.50 349.198334
37.52 342.245239
37.54 347.024719
37.56 356.87616
37.58 343.542603
37.60 339.037659
37.62 344.415771
37.64 340.723969
37.66 339.23703
37.68 329.356873
37.70 338.766235
37.72 349.64978
37.74 347.55127
37.76 346.060242
37.78 348.686523
37.80 340.064392
37.82 359.549469
37.84 336.75351
37.86 335.339508
37.88 325.161621
37.90 319.768372
37.92 333.374298
37.94 342.940125
37.96 340.027557
37.98 334.609253
38.00 329.065002
38.02 335.466888
38.04 343.832733
38.06 341.172729
38.08 342.537994
38.10 341.186005
38.12 316.171021
38.14 326.654205
38.16 350.277344
38.18 347.35788
38.20 335.697205
38.22 329.841888
38.24 334.872955
38.26 339.819946
38.28 330.596039
38.30 319.460419
38.32 320.659363
38.34 325.196777
38.36 322.115479
38.38 311.156738
38.40 318.502747
38.42 316.418701
38.44 311.334442
38.46 318.428101
38.48 308.849609
38.50 323.574585
38.52 330.756744
38.54 325.453186
38.56 307.98996
38.58 302.833862
38.60 297.468414
38.62 300.350189
38.64 298.875946
38.66 299.077026
38.68 306.056976
38.70 301.812256
38.72 283.789978
38.74 302.330475
38.76 297.031647
38.78 306.601837
38.80 306.559174
38.82 300.001495
38.84 306.898651
38.86 319.860016
38.88 306.484619
38.90 305.074951
38.92 303.742584
38.94 299.100891
38.96 294.490753
38.98 304.419067
39.00 302.954041
39.02 298.71167
39.04 307.388947
39.06 302.21347
39.08 305.392548
39.10 301.644745
39.12 313.022705
39.14 312.492737
39.16 297.678589
39.18 302.007172
39.20 300.922058
39.22 295.425629
39.24 306.229034
39.26 300.641113
39.28 297.960449
39.30 296.126617
39.32 286.557068
39.34 291.111206
39.36 312.903625
39.38 318.717621
39.40 309.447479
39.42 293.705811
39.44 297.692444
39.46 298.86142
39.48 295.670197
39.50 294.195282
39.52 293.888458
39.54 289.545288
39.56 279.04834
39.58 292.16687
39.60 286.379852
39.62 290.716522
39.64 278.364014
39.66 283.427429
39.68 298.96228
39.70 297.546814
39.72 289.082489
39.74 288.17392
39.76 290.020477
39.78 289.325531
39.80 287.508698
39.82 292.991913
39.84 287.854095
39.86 284.853607
39.88 294.217438
39.90 275.619232
39.92 280.867706
39.94 288.100616
39.96 276.855499
39.98 268.410156
40.00 264.007355
